<?xml version= "1.0" encoding="ISO-8859-1" ?>
<?xml-stylesheet type="text/xsl" href="define1-0-0.xsl"?>
<ODM 
 xmlns="http://www.cdisc.org/ns/odm/v1.2"
 xmlns:xsi="http://www.w3.org/2001/XMLSchema-instance"
 xmlns:xlink="http://www.w3.org/1999/xlink"
 xmlns:def="http://www.cdisc.org/ns/def/v1.0"
 xsi:schemaLocation="http://www.cdisc.org/ns/odm/v1.2 ../../definexslforxml/define1-0-0.xsd"
 FileOID="EFC6193"
 ODMVersion="1.2"
 FileType="Snapshot"
 CreationDateTime="2010-01-12T13:30:48">
<Study OID="EFC6193">
<GlobalVariables>
<StudyName>EFC6193</StudyName>
<StudyDescription>EFC6193</StudyDescription>
<ProtocolName>EFC6193</ProtocolName>
</GlobalVariables>
<MetaDataVersion OID="CDISC.SDTM.3.1.1"
 Name="EFC6193"
 Description="EFC6193"
 def:DefineVersion="1.0.0"
 def:StandardName="CDISC.SDTM"
 def:StandardVersion="3.1.1">
<def:AnnotatedCRF>
<def:DocumentRef leafID="blankcrf"/>
</def:AnnotatedCRF>
<def:leaf ID="blankcrf" xlink:href="blankcrf.pdf">
<def:title>Annotated Case Report Form</def:title>
</def:leaf>
<def:SupplementalDoc>
<def:DocumentRef leafID="SupplementalDataDefinitions.pdf"/>
</def:SupplementalDoc>
<def:leaf ID="SupplementalDataDefinitions.pdf"
xlink:href="supplementaldatadefinitions.pdf">
<def:title>Supplemental Data Definitions Document</def:title>
</def:leaf>
<def:ValueListDef 
 OID="ValueList.SUPPAE.QNAM">
<ItemRef 
 ItemOID="SUPPAE.QNAM.AETOXGRN"
 OrderNumber="0"
 Role="Record qualifier"
 Mandatory="Yes"/>
<ItemRef 
 ItemOID="SUPPAE.QNAM.AETRTEM"
 OrderNumber="0"
 Role="Record qualifier"
 Mandatory="Yes"/>
<ItemRef 
 ItemOID="SUPPAE.QNAM.AEOVISIT"
 OrderNumber="0"
 Role="Timing"
 Mandatory="Yes"/>
<ItemRef 
 ItemOID="SUPPAE.QNAM.AEDTHDTC"
 OrderNumber="0"
 Role="Timing"
 Mandatory="Yes"/>
<ItemRef 
 ItemOID="SUPPAE.QNAM.AECOLGRN"
 OrderNumber="0"
 Role="Record qualifier"
 Mandatory="Yes"/>
<ItemRef 
 ItemOID="SUPPAE.QNAM.AESEQUCM"
 OrderNumber="0"
 Role="Record qualifier"
 Mandatory="Yes"/>
<ItemRef 
 ItemOID="SUPPAE.QNAM.AEHLGT"
 OrderNumber="0"
 Role="Grouping Qualifier"
 Mandatory="Yes"/>
<ItemRef 
 ItemOID="SUPPAE.QNAM.AEREFER"
 OrderNumber="0"
 Role="Identifier"
 Mandatory="Yes"/>
<ItemRef 
 ItemOID="SUPPAE.QNAM.AEHLT"
 OrderNumber="0"
 Role="Grouping Qualifier"
 Mandatory="Yes"/>
<ItemRef 
 ItemOID="SUPPAE.QNAM.AELLT"
 OrderNumber="0"
 Role="Grouping Qualifier"
 Mandatory="Yes"/>
<ItemRef 
 ItemOID="SUPPAE.QNAM.AECOLGR"
 OrderNumber="0"
 Role="Record qualifier"
 Mandatory="Yes"/>
<ItemRef 
 ItemOID="SUPPAE.QNAM.AEDICTVS"
 OrderNumber="0"
 Role="Record qualifier"
 Mandatory="Yes"/>
</def:ValueListDef>
<def:ValueListDef 
 OID="ValueList.SUPPCM.QNAM">
<ItemRef 
 ItemOID="SUPPCM.QNAM.CMATCL2"
 OrderNumber="0"
 Role="Grouping Qualifier"
 Mandatory="Yes"/>
<ItemRef 
 ItemOID="SUPPCM.QNAM.CMATCL1"
 OrderNumber="0"
 Role="Grouping Qualifier"
 Mandatory="Yes"/>
<ItemRef 
 ItemOID="SUPPCM.QNAM.CMATCSEL"
 OrderNumber="0"
 Role="Grouping Qualifier"
 Mandatory="Yes"/>
<ItemRef 
 ItemOID="SUPPCM.QNAM.CMRLTL"
 OrderNumber="0"
 Role="Result Qualifier"
 Mandatory="Yes"/>
<ItemRef 
 ItemOID="SUPPCM.QNAM.CMLOC"
 OrderNumber="0"
 Role="Record qualifier"
 Mandatory="Yes"/>
<ItemRef 
 ItemOID="SUPPCM.QNAM.CMONGO"
 OrderNumber="0"
 Role="Timing"
 Mandatory="Yes"/>
<ItemRef 
 ItemOID="SUPPCM.QNAM.ENDTCOL"
 OrderNumber="0"
 Role="Timing"
 Mandatory="Yes"/>
<ItemRef 
 ItemOID="SUPPCM.QNAM.CMPRGDTC"
 OrderNumber="0"
 Role="Timing"
 Mandatory="Yes"/>
<ItemRef 
 ItemOID="SUPPCM.QNAM.CMONGB"
 OrderNumber="0"
 Role="Timing"
 Mandatory="Yes"/>
<ItemRef 
 ItemOID="SUPPCM.QNAM.CMENDRCM"
 OrderNumber="0"
 Role="Variable Qualifier"
 Mandatory="Yes"/>
<ItemRef 
 ItemOID="SUPPCM.QNAM.CMRSON"
 OrderNumber="0"
 Role="Record qualifier"
 Mandatory="Yes"/>
</def:ValueListDef>
<def:ValueListDef 
 OID="ValueList.SUPPDM.QNAM">
<ItemRef 
 ItemOID="SUPPDM.QNAM.ARMA"
 OrderNumber="0"
 Role="Synonym Qualifier"
 Mandatory="Yes"/>
<ItemRef 
 ItemOID="SUPPDM.QNAM.ARMCD2"
 OrderNumber="0"
 Role="Record qualifier"
 Mandatory="Yes"/>
<ItemRef 
 ItemOID="SUPPDM.QNAM.ITT"
 OrderNumber="0"
 Role="Selection"
 Mandatory="Yes"/>
<ItemRef 
 ItemOID="SUPPDM.QNAM.BSABL"
 OrderNumber="0"
 Role="Record qualifier"
 Mandatory="Yes"/>
<ItemRef 
 ItemOID="SUPPDM.QNAM.PPROT"
 OrderNumber="0"
 Role="Selection"
 Mandatory="Yes"/>
<ItemRef 
 ItemOID="SUPPDM.QNAM.ARM2"
 OrderNumber="0"
 Role="Synonym Qualifier"
 Mandatory="Yes"/>
<ItemRef 
 ItemOID="SUPPDM.QNAM.SAFETY"
 OrderNumber="0"
 Role="Selection"
 Mandatory="Yes"/>
</def:ValueListDef>
<def:ValueListDef 
 OID="ValueList.SUPPDS.QNAM">
<ItemRef 
 ItemOID="SUPPDS.QNAM.DSPROG"
 OrderNumber="0"
 Role="Record qualifier"
 Mandatory="Yes"/>
</def:ValueListDef>
<def:ValueListDef 
 OID="ValueList.SUPPEG.QNAM">
<ItemRef 
 ItemOID="SUPPEG.QNAM.EGORRES2"
 OrderNumber="0"
 Role="Variable Qualifier"
 Mandatory="Yes"/>
</def:ValueListDef>
<def:ValueListDef 
 OID="ValueList.SUPPEX.QNAM">
<ItemRef 
 ItemOID="SUPPEX.QNAM.EXTINT"
 OrderNumber="0"
 Role="Record qualifier"
 Mandatory="Yes"/>
<ItemRef 
 ItemOID="SUPPEX.QNAM.EXDSREA"
 OrderNumber="0"
 Role="Record qualifier"
 Mandatory="Yes"/>
<ItemRef 
 ItemOID="SUPPEX.QNAM.EXDSRCM"
 OrderNumber="0"
 Role="Record qualifier"
 Mandatory="Yes"/>
<ItemRef 
 ItemOID="SUPPEX.QNAM.ENDTCOL"
 OrderNumber="0"
 Role="Timing"
 Mandatory="Yes"/>
<ItemRef 
 ItemOID="SUPPEX.QNAM.EXDOSE2"
 OrderNumber="0"
 Role="Record qualifier"
 Mandatory="Yes"/>
<ItemRef 
 ItemOID="SUPPEX.QNAM.EXTRINT"
 OrderNumber="0"
 Role="Record qualifier"
 Mandatory="Yes"/>
<ItemRef 
 ItemOID="SUPPEX.QNAM.EXPDOSU"
 OrderNumber="0"
 Role="Record qualifier"
 Mandatory="Yes"/>
<ItemRef 
 ItemOID="SUPPEX.QNAM.EXPDOSE2"
 OrderNumber="0"
 Role="Record qualifier"
 Mandatory="Yes"/>
<ItemRef 
 ItemOID="SUPPEX.QNAM.EXCUMD2"
 OrderNumber="0"
 Role="Analysis"
 Mandatory="Yes"/>
<ItemRef 
 ItemOID="SUPPEX.QNAM.EXPDOSE"
 OrderNumber="0"
 Role="Record qualifier"
 Mandatory="Yes"/>
<ItemRef 
 ItemOID="SUPPEX.QNAM.EXDELAY"
 OrderNumber="0"
 Role="Timing"
 Mandatory="Yes"/>
<ItemRef 
 ItemOID="SUPPEX.QNAM.EXCUMD"
 OrderNumber="0"
 Role="Analysis"
 Mandatory="Yes"/>
</def:ValueListDef>
<def:ValueListDef 
 OID="ValueList.SUPPIE.QNAM">
<ItemRef 
 ItemOID="SUPPIE.QNAM.IETEST1"
 OrderNumber="0"
 Role="Variable Qualifier"
 Mandatory="Yes"/>
</def:ValueListDef>
<def:ValueListDef 
 OID="ValueList.SUPPLB.QNAM">
<ItemRef 
 ItemOID="SUPPLB.QNAM.LBOVISIT"
 OrderNumber="0"
 Role="Timing"
 Mandatory="Yes"/>
</def:ValueListDef>
<def:ValueListDef 
 OID="ValueList.SUPPLS.QNAM">
<ItemRef 
 ItemOID="SUPPLS.QNAM.LSSLOC"
 OrderNumber="0"
 Role="Record qualifier"
 Mandatory="Yes"/>
</def:ValueListDef>
<def:ValueListDef 
 OID="ValueList.SUPPMH.QNAM">
<ItemRef 
 ItemOID="SUPPMH.QNAM.MHPERSIS"
 OrderNumber="0"
 Role="Record qualifier"
 Mandatory="Yes"/>
</def:ValueListDef>
<def:ValueListDef 
 OID="ValueList.SUPPPE.QNAM">
<ItemRef 
 ItemOID="SUPPPE.QNAM.ASTUTK"
 OrderNumber="0"
 Role="Result Qualifier"
 Mandatory="Yes"/>
<ItemRef 
 ItemOID="SUPPPE.QNAM.ASOTHTK"
 OrderNumber="0"
 Role="Result Qualifier"
 Mandatory="Yes"/>
<ItemRef 
 ItemOID="SUPPPE.QNAM.ASMETCM"
 OrderNumber="0"
 Role="Result Qualifier"
 Mandatory="Yes"/>
<ItemRef 
 ItemOID="SUPPPE.QNAM.ASOTHCM"
 OrderNumber="0"
 Role="Result Qualifier"
 Mandatory="Yes"/>
</def:ValueListDef>
<def:ValueListDef 
 OID="ValueList.SUPPPR.QNAM">
<ItemRef 
 ItemOID="SUPPPR.QNAM.PROTHCM"
 OrderNumber="0"
 Role="Record qualifier"
 Mandatory="Yes"/>
</def:ValueListDef>
<ItemGroupDef 
 OID="TE"
 Name="TE"
 Repeating="No"
 IsReferenceData="No"
 SASDatasetName="TE"
 Purpose="Tabulation"
 def:Label="TRIAL ELEMENTS"
 def:Structure="One record per planned Element"
 def:DomainKeys="STUDYID,ETCD"
 def:Class="Trial design"
 def:ArchiveLocationID="location.TE">
<ItemRef 
 ItemOID="TE.STUDYID"
 OrderNumber="1"
 Mandatory="Yes"
 Role="Identifier"/>
<ItemRef 
 ItemOID="TE.DOMAIN"
 OrderNumber="2"
 Mandatory="Yes"
 Role="Identifier"/>
<ItemRef 
 ItemOID="TE.ETCD"
 OrderNumber="3"
 Mandatory="Yes"
 Role="Topic"/>
<ItemRef 
 ItemOID="TE.ELEMENT"
 OrderNumber="4"
 Mandatory="Yes"
 Role="Synonym Qualifier"/>
<ItemRef 
 ItemOID="TE.TESTRL"
 OrderNumber="5"
 Mandatory="Yes"
 Role="Rule"/>
<ItemRef 
 ItemOID="TE.TEENRL"
 OrderNumber="6"
 Mandatory="No"
 Role="Rule"/>
<def:leaf 
 ID="Location.TE"
 xlink:href="te.xpt">
<def:title>m5/Datasets
/efc6193
/tabulation/te.xpt</def:title>
</def:leaf>
</ItemGroupDef>
<ItemGroupDef 
 OID="TI"
 Name="TI"
 Repeating="No"
 IsReferenceData="No"
 SASDatasetName="TI"
 Purpose="Tabulation"
 def:Label="TRIAL INCLUSION/EXCLUSION CRITERIA"
 def:Structure="One record per I/E criterion"
 def:DomainKeys="STUDYID,IETESTCD"
 def:Class="Trial design"
 def:ArchiveLocationID="location.TI">
<ItemRef 
 ItemOID="TI.STUDYID"
 OrderNumber="1"
 Mandatory="Yes"
 Role="Identifier"/>
<ItemRef 
 ItemOID="TI.DOMAIN"
 OrderNumber="2"
 Mandatory="Yes"
 Role="Identifier"/>
<ItemRef 
 ItemOID="TI.IETESTCD"
 OrderNumber="3"
 Mandatory="Yes"
 Role="Topic"/>
<ItemRef 
 ItemOID="TI.IETEST"
 OrderNumber="4"
 Mandatory="Yes"
 Role="Synonym Qualifier"/>
<ItemRef 
 ItemOID="TI.IECAT"
 OrderNumber="5"
 Mandatory="Yes"
 Role="Grouping Qualifier"/>
<def:leaf 
 ID="Location.TI"
 xlink:href="ti.xpt">
<def:title>m5/Datasets
/efc6193
/tabulation/ti.xpt</def:title>
</def:leaf>
</ItemGroupDef>
<ItemGroupDef 
 OID="TS"
 Name="TS"
 Repeating="No"
 IsReferenceData="No"
 SASDatasetName="TS"
 Purpose="Tabulation"
 def:Label="TRIAL SUMMARY"
 def:Structure="One record per trial summary parameter value"
 def:DomainKeys="STUDYID,TSPARMCD,TSSEQ"
 def:Class="Trial design"
 def:ArchiveLocationID="location.TS">
<ItemRef 
 ItemOID="TS.STUDYID"
 OrderNumber="1"
 Mandatory="Yes"
 Role="Identifier"/>
<ItemRef 
 ItemOID="TS.DOMAIN"
 OrderNumber="2"
 Mandatory="Yes"
 Role="Identifier"/>
<ItemRef 
 ItemOID="TS.TSSEQ"
 OrderNumber="3"
 Mandatory="Yes"
 Role="Identifier"/>
<ItemRef 
 ItemOID="TS.TSPARMCD"
 OrderNumber="4"
 Mandatory="Yes"
 Role="Topic"/>
<ItemRef 
 ItemOID="TS.TSPARM"
 OrderNumber="5"
 Mandatory="Yes"
 Role="Synonym Qualifier"/>
<ItemRef 
 ItemOID="TS.TSVAL"
 OrderNumber="6"
 Mandatory="Yes"
 Role="Result Qualifier"/>
<def:leaf 
 ID="Location.TS"
 xlink:href="ts.xpt">
<def:title>m5/Datasets
/efc6193
/tabulation/ts.xpt</def:title>
</def:leaf>
</ItemGroupDef>
<ItemGroupDef 
 OID="TV"
 Name="TV"
 Repeating="No"
 IsReferenceData="No"
 SASDatasetName="TV"
 Purpose="Tabulation"
 def:Label="TRIAL VISITS"
 def:Structure="One record per planned Visit per Arm"
 def:DomainKeys="STUDYID,VISITNUM"
 def:Class="Trial design"
 def:ArchiveLocationID="location.TV">
<ItemRef 
 ItemOID="TV.STUDYID"
 OrderNumber="1"
 Mandatory="Yes"
 Role="Identifier"/>
<ItemRef 
 ItemOID="TV.DOMAIN"
 OrderNumber="2"
 Mandatory="Yes"
 Role="Identifier"/>
<ItemRef 
 ItemOID="TV.VISITNUM"
 OrderNumber="3"
 Mandatory="No"
 Role="Timing"/>
<ItemRef 
 ItemOID="TV.VISIT"
 OrderNumber="4"
 Mandatory="No"
 Role="Timing"/>
<ItemRef 
 ItemOID="TV.ARMCD"
 OrderNumber="5"
 Mandatory="No"
 Role="Record qualifier"/>
<ItemRef 
 ItemOID="TV.TVSTRL"
 OrderNumber="6"
 Mandatory="Yes"
 Role="Rule"/>
<ItemRef 
 ItemOID="TV.TVENRL"
 OrderNumber="7"
 Mandatory="Yes"
 Role="Rule"/>
<def:leaf 
 ID="Location.TV"
 xlink:href="tv.xpt">
<def:title>m5/Datasets
/efc6193
/tabulation/tv.xpt</def:title>
</def:leaf>
</ItemGroupDef>
<ItemGroupDef 
 OID="DM"
 Name="DM"
 Repeating="No"
 IsReferenceData="No"
 SASDatasetName="DM"
 Purpose="Tabulation"
 def:Label="DEMOGRAPHICS"
 def:Structure="One record per subject"
 def:DomainKeys="STUDYID,USUBJID"
 def:Class="Subject Demographics"
 def:ArchiveLocationID="location.DM">
<ItemRef 
 ItemOID="DM.STUDYID"
 OrderNumber="1"
 Mandatory="Yes"
 Role="Identifier"/>
<ItemRef 
 ItemOID="DM.DOMAIN"
 OrderNumber="2"
 Mandatory="Yes"
 Role="Identifier"/>
<ItemRef 
 ItemOID="DM.USUBJID"
 OrderNumber="3"
 Mandatory="Yes"
 Role="Identifier"/>
<ItemRef 
 ItemOID="DM.SUBJID"
 OrderNumber="4"
 Mandatory="Yes"
 Role="Identifier"/>
<ItemRef 
 ItemOID="DM.RFSTDTC"
 OrderNumber="5"
 Mandatory="No"
 Role="Timing"/>
<ItemRef 
 ItemOID="DM.RFENDTC"
 OrderNumber="6"
 Mandatory="No"
 Role="Timing"/>
<ItemRef 
 ItemOID="DM.AGEGRP"
 OrderNumber="10"
 Mandatory="Yes"
 Role="Record qualifier"/>
<ItemRef 
 ItemOID="DM.AGEU"
 OrderNumber="11"
 Mandatory="No"
 Role="Variable Qualifier"/>
<ItemRef 
 ItemOID="DM.SEX"
 OrderNumber="12"
 Mandatory="Yes"
 Role="Record qualifier"/>
<ItemRef 
 ItemOID="DM.RACE"
 OrderNumber="13"
 Mandatory="Yes"
 Role="Record qualifier"/>
<ItemRef 
 ItemOID="DM.ARM"
 OrderNumber="14"
 Mandatory="Yes"
 Role="Synonym Qualifier"/>
<ItemRef 
 ItemOID="DM.ARMCD"
 OrderNumber="15"
 Mandatory="Yes"
 Role="Record qualifier"/>
<def:leaf 
 ID="Location.DM"
 xlink:href="dm.xpt">
<def:title>m5/Datasets
/efc6193
/tabulation/dm.xpt</def:title>
</def:leaf>
</ItemGroupDef>
<ItemGroupDef 
 OID="SV"
 Name="SV"
 Repeating="Yes"
 IsReferenceData="No"
 SASDatasetName="SV"
 Purpose="Tabulation"
 def:Label="SUBJECT VISIT DATA"
 def:Structure="Multiple records per subject"
 def:DomainKeys="STUDYID,USUBJID,VISITNUM"
 def:Class="Special Purpose Domains"
 def:ArchiveLocationID="location.SV">
<ItemRef 
 ItemOID="SV.STUDYID"
 OrderNumber="1"
 Mandatory="Yes"
 Role="Identifier"/>
<ItemRef 
 ItemOID="SV.DOMAIN"
 OrderNumber="2"
 Mandatory="Yes"
 Role="Identifier"/>
<ItemRef 
 ItemOID="SV.USUBJID"
 OrderNumber="3"
 Mandatory="Yes"
 Role="Identifier"/>
<ItemRef 
 ItemOID="SV.VISITNUM"
 OrderNumber="4"
 Mandatory="Yes"
 Role="Timing"/>
<ItemRef 
 ItemOID="SV.VISIT"
 OrderNumber="5"
 Mandatory="Yes"
 Role="Timing"/>
<ItemRef 
 ItemOID="SV.SVSTDTC"
 OrderNumber="6"
 Mandatory="No"
 Role="Timing"/>
<ItemRef 
 ItemOID="SV.SVSTDY"
 OrderNumber="7"
 Mandatory="No"
 Role="Timing"/>
<ItemRef 
 ItemOID="SV.SVENDTC"
 OrderNumber="8"
 Mandatory="No"
 Role="Timing"/>
<def:leaf 
 ID="Location.SV"
 xlink:href="sv.xpt">
<def:title>m5/Datasets
/efc6193
/tabulation/sv.xpt</def:title>
</def:leaf>
</ItemGroupDef>
<ItemGroupDef 
 OID="CM"
 Name="CM"
 Repeating="Yes"
 IsReferenceData="No"
 SASDatasetName="CM"
 Purpose="Tabulation"
 def:Label="CONCOMITANT MEDICATIONS"
 def:Structure="One record per medication intervention episode per subject"
 def:DomainKeys="STUDYID,USUBJID,CMTRT,CMSTDTC"
 def:Class="Interventions"
 def:ArchiveLocationID="location.CM">
<ItemRef 
 ItemOID="CM.STUDYID"
 OrderNumber="1"
 Mandatory="Yes"
 Role="Identifier"/>
<ItemRef 
 ItemOID="CM.DOMAIN"
 OrderNumber="2"
 Mandatory="Yes"
 Role="Identifier"/>
<ItemRef 
 ItemOID="CM.USUBJID"
 OrderNumber="3"
 Mandatory="Yes"
 Role="Identifier"/>
<ItemRef 
 ItemOID="CM.CMSEQ"
 OrderNumber="4"
 Mandatory="Yes"
 Role="Identifier"/>
<ItemRef 
 ItemOID="CM.CMTRT"
 OrderNumber="5"
 Mandatory="Yes"
 Role="Topic"/>
<ItemRef 
 ItemOID="CM.CMDECOD"
 OrderNumber="6"
 Mandatory="No"
 Role="Grouping Qualifier"/>
<ItemRef 
 ItemOID="CM.CMCAT"
 OrderNumber="7"
 Mandatory="No"
 Role="Grouping Qualifier"/>
<ItemRef 
 ItemOID="CM.CMINDC"
 OrderNumber="8"
 Mandatory="No"
 Role="Record qualifier"/>
<ItemRef 
 ItemOID="CM.CMDOSE"
 OrderNumber="9"
 Mandatory="No"
 Role="Record qualifier"/>
<ItemRef 
 ItemOID="CM.CMDOSU"
 OrderNumber="10"
 Mandatory="No"
 Role="Variable Qualifier"/>
<ItemRef 
 ItemOID="CM.CMDOSRGM"
 OrderNumber="11"
 Mandatory="No"
 Role="Variable Qualifier"/>
<ItemRef 
 ItemOID="CM.VISITNUM"
 OrderNumber="12"
 Mandatory="No"
 Role="Timing"/>
<ItemRef 
 ItemOID="CM.VISIT"
 OrderNumber="13"
 Mandatory="No"
 Role="Timing"/>
<ItemRef 
 ItemOID="CM.CMSTDTC"
 OrderNumber="14"
 Mandatory="No"
 Role="Timing"/>
<ItemRef 
 ItemOID="CM.CMSTDY"
 OrderNumber="15"
 Mandatory="No"
 Role="Timing"/>
<ItemRef 
 ItemOID="CM.CMENDTC"
 OrderNumber="16"
 Mandatory="No"
 Role="Timing"/>
<ItemRef 
 ItemOID="CM.CMENDY"
 OrderNumber="17"
 Mandatory="No"
 Role="Timing"/>
<def:leaf 
 ID="Location.CM"
 xlink:href="cm.xpt">
<def:title>m5/Datasets
/efc6193
/tabulation/cm.xpt</def:title>
</def:leaf>
</ItemGroupDef>
<ItemGroupDef 
 OID="EX"
 Name="EX"
 Repeating="Yes"
 IsReferenceData="No"
 SASDatasetName="EX"
 Purpose="Tabulation"
 def:Label="EXPOSURE"
 def:Structure="One record per constant dosing interval per subject"
 def:DomainKeys="STUDYID,USUBJID,EXTRT,EXSTDTC"
 def:Class="Interventions"
 def:ArchiveLocationID="location.EX">
<ItemRef 
 ItemOID="EX.STUDYID"
 OrderNumber="1"
 Mandatory="Yes"
 Role="Identifier"/>
<ItemRef 
 ItemOID="EX.DOMAIN"
 OrderNumber="2"
 Mandatory="Yes"
 Role="Identifier"/>
<ItemRef 
 ItemOID="EX.USUBJID"
 OrderNumber="3"
 Mandatory="Yes"
 Role="Identifier"/>
<ItemRef 
 ItemOID="EX.EXSEQ"
 OrderNumber="4"
 Mandatory="Yes"
 Role="Identifier"/>
<ItemRef 
 ItemOID="EX.EXTRT"
 OrderNumber="5"
 Mandatory="Yes"
 Role="Topic"/>
<ItemRef 
 ItemOID="EX.EXLOT"
 OrderNumber="6"
 Mandatory="No"
 Role="Record qualifier"/>
<ItemRef 
 ItemOID="EX.EXDOSE"
 OrderNumber="7"
 Mandatory="No"
 Role="Record qualifier"/>
<ItemRef 
 ItemOID="EX.EXDOSU"
 OrderNumber="8"
 Mandatory="No"
 Role="Variable Qualifier"/>
<ItemRef 
 ItemOID="EX.EXDOSFRM"
 OrderNumber="9"
 Mandatory="Yes"
 Role="Record qualifier"/>
<ItemRef 
 ItemOID="EX.EXROUTE"
 OrderNumber="10"
 Mandatory="No"
 Role="Variable Qualifier"/>
<ItemRef 
 ItemOID="EX.VISITNUM"
 OrderNumber="11"
 Mandatory="No"
 Role="Timing"/>
<ItemRef 
 ItemOID="EX.VISIT"
 OrderNumber="12"
 Mandatory="No"
 Role="Timing"/>
<ItemRef 
 ItemOID="EX.EXSTDTC"
 OrderNumber="13"
 Mandatory="Yes"
 Role="Timing"/>
<ItemRef 
 ItemOID="EX.EXSTDY"
 OrderNumber="14"
 Mandatory="No"
 Role="Timing"/>
<ItemRef 
 ItemOID="EX.EXENDTC"
 OrderNumber="15"
 Mandatory="No"
 Role="Timing"/>
<def:leaf 
 ID="Location.EX"
 xlink:href="ex.xpt">
<def:title>m5/Datasets
/efc6193
/tabulation/ex.xpt</def:title>
</def:leaf>
</ItemGroupDef>
<ItemGroupDef 
 OID="PR"
 Name="PR"
 Repeating="Yes"
 IsReferenceData="No"
 SASDatasetName="PR"
 Purpose="Tabulation"
 def:Label="OTHER PROCEDURES"
 def:Structure="Multiple records per subject"
 def:DomainKeys="STUDYID,USUBJID,PRDTC"
 def:Class="Interventions"
 def:ArchiveLocationID="location.PR">
<ItemRef 
 ItemOID="PR.STUDYID"
 OrderNumber="1"
 Mandatory="Yes"
 Role="Identifier"/>
<ItemRef 
 ItemOID="PR.DOMAIN"
 OrderNumber="2"
 Mandatory="Yes"
 Role="Identifier"/>
<ItemRef 
 ItemOID="PR.USUBJID"
 OrderNumber="3"
 Mandatory="Yes"
 Role="Identifier"/>
<ItemRef 
 ItemOID="PR.PRSEQ"
 OrderNumber="4"
 Mandatory="Yes"
 Role="Identifier"/>
<ItemRef 
 ItemOID="PR.PRTRT"
 OrderNumber="5"
 Mandatory="Yes"
 Role="Topic"/>
<ItemRef 
 ItemOID="PR.PRCAT"
 OrderNumber="6"
 Mandatory="No"
 Role="Grouping Qualifier"/>
<ItemRef 
 ItemOID="PR.VISITNUM"
 OrderNumber="7"
 Mandatory="No"
 Role="Timing"/>
<ItemRef 
 ItemOID="PR.VISIT"
 OrderNumber="8"
 Mandatory="No"
 Role="Timing"/>
<ItemRef 
 ItemOID="PR.PRDTC"
 OrderNumber="9"
 Mandatory="No"
 Role="Timing"/>
<def:leaf 
 ID="Location.PR"
 xlink:href="pr.xpt">
<def:title>m5/Datasets
/efc6193
/tabulation/pr.xpt</def:title>
</def:leaf>
</ItemGroupDef>
<ItemGroupDef 
 OID="AE"
 Name="AE"
 Repeating="Yes"
 IsReferenceData="No"
 SASDatasetName="AE"
 Purpose="Tabulation"
 def:Label="ADVERSE EVENTS"
 def:Structure="One record per event per subject"
 def:DomainKeys="STUDYID,USUBJID,AETERM,AESTDTC"
 def:Class="Events"
 def:ArchiveLocationID="location.AE">
<ItemRef 
 ItemOID="AE.STUDYID"
 OrderNumber="1"
 Mandatory="Yes"
 Role="Identifier"/>
<ItemRef 
 ItemOID="AE.DOMAIN"
 OrderNumber="2"
 Mandatory="Yes"
 Role="Identifier"/>
<ItemRef 
 ItemOID="AE.USUBJID"
 OrderNumber="3"
 Mandatory="Yes"
 Role="Identifier"/>
<ItemRef 
 ItemOID="AE.AESEQ"
 OrderNumber="4"
 Mandatory="Yes"
 Role="Identifier"/>
<ItemRef 
 ItemOID="AE.AESPID"
 OrderNumber="5"
 Mandatory="No"
 Role="Identifier"/>
<ItemRef 
 ItemOID="AE.AEREFID"
 OrderNumber="6"
 Mandatory="No"
 Role="Identifier"/>
<ItemRef 
 ItemOID="AE.AETERM"
 OrderNumber="7"
 Mandatory="Yes"
 Role="Topic"/>
<ItemRef 
 ItemOID="AE.AEDECOD"
 OrderNumber="8"
 Mandatory="Yes"
 Role="Synonym Qualifier"/>
<ItemRef 
 ItemOID="AE.AEBODSYS"
 OrderNumber="9"
 Mandatory="No"
 Role="Grouping Qualifier"/>
<ItemRef 
 ItemOID="AE.AESER"
 OrderNumber="10"
 Mandatory="No"
 Role="Record qualifier"/>
<ItemRef 
 ItemOID="AE.AEACN"
 OrderNumber="11"
 Mandatory="No"
 Role="Record qualifier"/>
<ItemRef 
 ItemOID="AE.AECONTRT"
 OrderNumber="12"
 Mandatory="No"
 Role="Record qualifier"/>
<ItemRef 
 ItemOID="AE.AEREL"
 OrderNumber="13"
 Mandatory="No"
 Role="Record qualifier"/>
<ItemRef 
 ItemOID="AE.AEPATT"
 OrderNumber="14"
 Mandatory="No"
 Role="Record qualifier"/>
<ItemRef 
 ItemOID="AE.AEOUT"
 OrderNumber="15"
 Mandatory="No"
 Role="Record qualifier"/>
<ItemRef 
 ItemOID="AE.AESCONG"
 OrderNumber="16"
 Mandatory="No"
 Role="Record qualifier"/>
<ItemRef 
 ItemOID="AE.AESDISAB"
 OrderNumber="17"
 Mandatory="No"
 Role="Record qualifier"/>
<ItemRef 
 ItemOID="AE.AESDTH"
 OrderNumber="18"
 Mandatory="No"
 Role="Record qualifier"/>
<ItemRef 
 ItemOID="AE.AESHOSP"
 OrderNumber="19"
 Mandatory="No"
 Role="Record qualifier"/>
<ItemRef 
 ItemOID="AE.AESLIFE"
 OrderNumber="20"
 Mandatory="No"
 Role="Record qualifier"/>
<ItemRef 
 ItemOID="AE.AESMIE"
 OrderNumber="21"
 Mandatory="No"
 Role="Record qualifier"/>
<ItemRef 
 ItemOID="AE.AETOXGR"
 OrderNumber="22"
 Mandatory="No"
 Role="Record qualifier"/>
<ItemRef 
 ItemOID="AE.VISITNUM"
 OrderNumber="23"
 Mandatory="No"
 Role="Timing"/>
<ItemRef 
 ItemOID="AE.VISIT"
 OrderNumber="24"
 Mandatory="No"
 Role="Timing"/>
<ItemRef 
 ItemOID="AE.AESTWK"
 OrderNumber="25"
 Mandatory="No"
 Role="Timing"/>
<ItemRef 
 ItemOID="AE.AESTWKF"
 OrderNumber="26"
 Mandatory="No"
 Role="Timing"/>
<ItemRef 
 ItemOID="AE.AEENWK"
 OrderNumber="27"
 Mandatory="No"
 Role="Timing"/>
<ItemRef 
 ItemOID="AE.AEENWKF"
 OrderNumber="28"
 Mandatory="No"
 Role="Timing"/>
<def:leaf 
 ID="Location.AE"
 xlink:href="ae.xpt">
<def:title>m5/Datasets
/efc6193
/tabulation/ae.xpt</def:title>
</def:leaf>
</ItemGroupDef>
<ItemGroupDef 
 OID="CD"
 Name="CD"
 Repeating="Yes"
 IsReferenceData="No"
 SASDatasetName="CD"
 Purpose="Tabulation"
 def:Label="CANCER DIAGNOSIS"
 def:Structure="Multiple records per subject"
 def:DomainKeys="STUDYID,USUBJID,CDTESTCD"
 def:Class="Findings"
 def:ArchiveLocationID="location.CD">
<ItemRef 
 ItemOID="CD.STUDYID"
 OrderNumber="1"
 Mandatory="Yes"
 Role="Identifier"/>
<ItemRef 
 ItemOID="CD.DOMAIN"
 OrderNumber="2"
 Mandatory="Yes"
 Role="Identifier"/>
<ItemRef 
 ItemOID="CD.USUBJID"
 OrderNumber="3"
 Mandatory="Yes"
 Role="Identifier"/>
<ItemRef 
 ItemOID="CD.CDSEQ"
 OrderNumber="4"
 Mandatory="Yes"
 Role="Identifier"/>
<ItemRef 
 ItemOID="CD.CDTESTCD"
 OrderNumber="5"
 Mandatory="Yes"
 Role="Topic"/>
<ItemRef 
 ItemOID="CD.CDTEST"
 OrderNumber="6"
 Mandatory="Yes"
 Role="Synonym Qualifier"/>
<ItemRef 
 ItemOID="CD.CDCAT"
 OrderNumber="7"
 Mandatory="Yes"
 Role="Grouping Qualifier"/>
<ItemRef 
 ItemOID="CD.CDORRES"
 OrderNumber="8"
 Mandatory="No"
 Role="Result Qualifier"/>
<ItemRef 
 ItemOID="CD.CDSTRESC"
 OrderNumber="9"
 Mandatory="No"
 Role="Result Qualifier"/>
<ItemRef 
 ItemOID="CD.CDSTAT"
 OrderNumber="10"
 Mandatory="No"
 Role="Record qualifier"/>
<ItemRef 
 ItemOID="CD.VISITNUM"
 OrderNumber="11"
 Mandatory="No"
 Role="Timing"/>
<ItemRef 
 ItemOID="CD.VISIT"
 OrderNumber="12"
 Mandatory="No"
 Role="Timing"/>
<ItemRef 
 ItemOID="CD.CDDTC"
 OrderNumber="13"
 Mandatory="No"
 Role="Timing"/>
<def:leaf 
 ID="Location.CD"
 xlink:href="cd.xpt">
<def:title>m5/Datasets
/efc6193
/tabulation/cd.xpt</def:title>
</def:leaf>
</ItemGroupDef>
<ItemGroupDef 
 OID="DS"
 Name="DS"
 Repeating="Yes"
 IsReferenceData="No"
 SASDatasetName="DS"
 Purpose="Tabulation"
 def:Label="DISPOSITION"
 def:Structure="One record per disposition status or protocol milestone per subject"
 def:DomainKeys="STUDYID,USUBJID,DSSTDTC"
 def:Class="Events"
 def:ArchiveLocationID="location.DS">
<ItemRef 
 ItemOID="DS.STUDYID"
 OrderNumber="1"
 Mandatory="Yes"
 Role="Identifier"/>
<ItemRef 
 ItemOID="DS.DOMAIN"
 OrderNumber="2"
 Mandatory="Yes"
 Role="Identifier"/>
<ItemRef 
 ItemOID="DS.USUBJID"
 OrderNumber="3"
 Mandatory="Yes"
 Role="Identifier"/>
<ItemRef 
 ItemOID="DS.DSSEQ"
 OrderNumber="4"
 Mandatory="Yes"
 Role="Identifier"/>
<ItemRef 
 ItemOID="DS.DSTERM"
 OrderNumber="5"
 Mandatory="Yes"
 Role="Topic"/>
<ItemRef 
 ItemOID="DS.DSDECOD"
 OrderNumber="6"
 Mandatory="Yes"
 Role="Synonym Qualifier"/>
<ItemRef 
 ItemOID="DS.DSCAT"
 OrderNumber="7"
 Mandatory="No"
 Role="Grouping Qualifier"/>
<ItemRef 
 ItemOID="DS.DSSCAT"
 OrderNumber="8"
 Mandatory="No"
 Role="Grouping Qualifier"/>
<ItemRef 
 ItemOID="DS.EPOCH"
 OrderNumber="9"
 Mandatory="No"
 Role="Timing"/>
<ItemRef 
 ItemOID="DS.VISITNUM"
 OrderNumber="10"
 Mandatory="No"
 Role="Timing"/>
<ItemRef 
 ItemOID="DS.VISIT"
 OrderNumber="11"
 Mandatory="No"
 Role="Timing"/>
<ItemRef 
 ItemOID="DS.DSSTWK"
 OrderNumber="12"
 Mandatory="No"
 Role="Timing"/>
<ItemRef 
 ItemOID="DS.DSSTWKF"
 OrderNumber="13"
 Mandatory="No"
 Role="Timing"/>
<def:leaf 
 ID="Location.DS"
 xlink:href="ds.xpt">
<def:title>m5/Datasets
/efc6193
/tabulation/ds.xpt</def:title>
</def:leaf>
</ItemGroupDef>
<ItemGroupDef 
 OID="MH"
 Name="MH"
 Repeating="Yes"
 IsReferenceData="No"
 SASDatasetName="MH"
 Purpose="Tabulation"
 def:Label="MEDICAL HISTORY"
 def:Structure="One record per medical  history event per subject"
 def:DomainKeys="STUDYID,USUBJID,MHTERM"
 def:Class="Events"
 def:ArchiveLocationID="location.MH">
<ItemRef 
 ItemOID="MH.STUDYID"
 OrderNumber="1"
 Mandatory="Yes"
 Role="Identifier"/>
<ItemRef 
 ItemOID="MH.DOMAIN"
 OrderNumber="2"
 Mandatory="Yes"
 Role="Identifier"/>
<ItemRef 
 ItemOID="MH.USUBJID"
 OrderNumber="3"
 Mandatory="Yes"
 Role="Identifier"/>
<ItemRef 
 ItemOID="MH.MHSEQ"
 OrderNumber="4"
 Mandatory="Yes"
 Role="Identifier"/>
<ItemRef 
 ItemOID="MH.MHSPID"
 OrderNumber="5"
 Mandatory="No"
 Role="Identifier"/>
<ItemRef 
 ItemOID="MH.MHTERM"
 OrderNumber="6"
 Mandatory="Yes"
 Role="Topic"/>
<ItemRef 
 ItemOID="MH.MHCAT"
 OrderNumber="7"
 Mandatory="No"
 Role="Grouping Qualifier"/>
<ItemRef 
 ItemOID="MH.MHDECOD"
 OrderNumber="8"
 Mandatory="No"
 Role="Synonym Qualifier"/>
<ItemRef 
 ItemOID="MH.MHBODSYS"
 OrderNumber="9"
 Mandatory="No"
 Role="Record qualifier"/>
<ItemRef 
 ItemOID="MH.VISITNUM"
 OrderNumber="10"
 Mandatory="No"
 Role="Timing"/>
<ItemRef 
 ItemOID="MH.VISIT"
 OrderNumber="11"
 Mandatory="No"
 Role="Timing"/>
<ItemRef 
 ItemOID="MH.MHSTDTC"
 OrderNumber="12"
 Mandatory="No"
 Role="Timing"/>
<def:leaf 
 ID="Location.MH"
 xlink:href="mh.xpt">
<def:title>m5/Datasets
/efc6193
/tabulation/mh.xpt</def:title>
</def:leaf>
</ItemGroupDef>
<ItemGroupDef 
 OID="CX"
 Name="CX"
 Repeating="Yes"
 IsReferenceData="No"
 SASDatasetName="CX"
 Purpose="Tabulation"
 def:Label="CLINICAL EXAMINATIONS"
 def:Structure="Multiple records per subject"
 def:DomainKeys="STUDYID,USUBJID,VISITNUM,CXTESTCD,CXDTC"
 def:Class="Findings"
 def:ArchiveLocationID="location.CX">
<ItemRef 
 ItemOID="CX.STUDYID"
 OrderNumber="1"
 Mandatory="Yes"
 Role="Identifier"/>
<ItemRef 
 ItemOID="CX.DOMAIN"
 OrderNumber="2"
 Mandatory="Yes"
 Role="Identifier"/>
<ItemRef 
 ItemOID="CX.USUBJID"
 OrderNumber="3"
 Mandatory="Yes"
 Role="Identifier"/>
<ItemRef 
 ItemOID="CX.CXSEQ"
 OrderNumber="4"
 Mandatory="Yes"
 Role="Identifier"/>
<ItemRef 
 ItemOID="CX.CXTESTCD"
 OrderNumber="5"
 Mandatory="Yes"
 Role="Topic"/>
<ItemRef 
 ItemOID="CX.CXTEST"
 OrderNumber="6"
 Mandatory="Yes"
 Role="Synonym Qualifier"/>
<ItemRef 
 ItemOID="CX.CXCAT"
 OrderNumber="7"
 Mandatory="No"
 Role="Grouping Qualifier"/>
<ItemRef 
 ItemOID="CX.CXORRES"
 OrderNumber="8"
 Mandatory="No"
 Role="Result Qualifier"/>
<ItemRef 
 ItemOID="CX.CXORRESU"
 OrderNumber="9"
 Mandatory="No"
 Role="Variable Qualifier"/>
<ItemRef 
 ItemOID="CX.CXORNRLO"
 OrderNumber="10"
 Mandatory="No"
 Role="Variable Qualifier"/>
<ItemRef 
 ItemOID="CX.CXSTRESC"
 OrderNumber="11"
 Mandatory="No"
 Role="Result Qualifier"/>
<ItemRef 
 ItemOID="CX.CXSTRESN"
 OrderNumber="12"
 Mandatory="No"
 Role="Result Qualifier"/>
<ItemRef 
 ItemOID="CX.CXSTRESU"
 OrderNumber="13"
 Mandatory="No"
 Role="Variable Qualifier"/>
<ItemRef 
 ItemOID="CX.CXSTNRLO"
 OrderNumber="14"
 Mandatory="No"
 Role="Variable Qualifier"/>
<ItemRef 
 ItemOID="CX.CXSTAT"
 OrderNumber="15"
 Mandatory="No"
 Role="Record qualifier"/>
<ItemRef 
 ItemOID="CX.CXMETHOD"
 OrderNumber="16"
 Mandatory="No"
 Role="Record qualifier"/>
<ItemRef 
 ItemOID="CX.CXBLFL"
 OrderNumber="17"
 Mandatory="No"
 Role="Record qualifier"/>
<ItemRef 
 ItemOID="CX.VISITNUM"
 OrderNumber="18"
 Mandatory="No"
 Role="Timing"/>
<ItemRef 
 ItemOID="CX.VISIT"
 OrderNumber="19"
 Mandatory="No"
 Role="Timing"/>
<ItemRef 
 ItemOID="CX.CXDTC"
 OrderNumber="20"
 Mandatory="No"
 Role="Timing"/>
<def:leaf 
 ID="Location.CX"
 xlink:href="cx.xpt">
<def:title>m5/Datasets
/efc6193
/tabulation/cx.xpt</def:title>
</def:leaf>
</ItemGroupDef>
<ItemGroupDef 
 OID="EG"
 Name="EG"
 Repeating="Yes"
 IsReferenceData="No"
 SASDatasetName="EG"
 Purpose="Tabulation"
 def:Label="ECG RESULTS"
 def:Structure="One record per ECG per time point per visit per subject"
 def:DomainKeys="STUDYID,USUBJID,EGTESTCD,VISITNUM"
 def:Class="Findings"
 def:ArchiveLocationID="location.EG">
<ItemRef 
 ItemOID="EG.STUDYID"
 OrderNumber="1"
 Mandatory="Yes"
 Role="Identifier"/>
<ItemRef 
 ItemOID="EG.DOMAIN"
 OrderNumber="2"
 Mandatory="Yes"
 Role="Identifier"/>
<ItemRef 
 ItemOID="EG.USUBJID"
 OrderNumber="3"
 Mandatory="Yes"
 Role="Identifier"/>
<ItemRef 
 ItemOID="EG.EGSEQ"
 OrderNumber="4"
 Mandatory="Yes"
 Role="Identifier"/>
<ItemRef 
 ItemOID="EG.EGTESTCD"
 OrderNumber="5"
 Mandatory="Yes"
 Role="Topic"/>
<ItemRef 
 ItemOID="EG.EGTEST"
 OrderNumber="6"
 Mandatory="Yes"
 Role="Synonym Qualifier"/>
<ItemRef 
 ItemOID="EG.EGORRES"
 OrderNumber="7"
 Mandatory="No"
 Role="Variable Qualifier"/>
<ItemRef 
 ItemOID="EG.EGSTRESC"
 OrderNumber="8"
 Mandatory="No"
 Role="Variable Qualifier"/>
<ItemRef 
 ItemOID="EG.EGBLFL"
 OrderNumber="9"
 Mandatory="No"
 Role="Record qualifier"/>
<ItemRef 
 ItemOID="EG.EGEVAL"
 OrderNumber="10"
 Mandatory="No"
 Role="Record qualifier"/>
<ItemRef 
 ItemOID="EG.VISITNUM"
 OrderNumber="11"
 Mandatory="No"
 Role="Timing"/>
<ItemRef 
 ItemOID="EG.VISIT"
 OrderNumber="12"
 Mandatory="No"
 Role="Timing"/>
<ItemRef 
 ItemOID="EG.EGDTC"
 OrderNumber="13"
 Mandatory="No"
 Role="Timing"/>
<ItemRef 
 ItemOID="EG.EGDY"
 OrderNumber="14"
 Mandatory="No"
 Role="Timing"/>
<def:leaf 
 ID="Location.EG"
 xlink:href="eg.xpt">
<def:title>m5/Datasets
/efc6193
/tabulation/eg.xpt</def:title>
</def:leaf>
</ItemGroupDef>
<ItemGroupDef 
 OID="IE"
 Name="IE"
 Repeating="Yes"
 IsReferenceData="No"
 SASDatasetName="IE"
 Purpose="Tabulation"
 def:Label="INCLUSION/EXCLUSION EXCEPTIONS"
 def:Structure="One record per I/E criteria not met per subject"
 def:DomainKeys="STUDYID,USUBJID,IETESTCD"
 def:Class="Findings"
 def:ArchiveLocationID="location.IE">
<ItemRef 
 ItemOID="IE.STUDYID"
 OrderNumber="1"
 Mandatory="Yes"
 Role="Identifier"/>
<ItemRef 
 ItemOID="IE.DOMAIN"
 OrderNumber="2"
 Mandatory="Yes"
 Role="Identifier"/>
<ItemRef 
 ItemOID="IE.USUBJID"
 OrderNumber="3"
 Mandatory="Yes"
 Role="Identifier"/>
<ItemRef 
 ItemOID="IE.IESEQ"
 OrderNumber="4"
 Mandatory="Yes"
 Role="Identifier"/>
<ItemRef 
 ItemOID="IE.IESPID"
 OrderNumber="5"
 Mandatory="No"
 Role="Identifier"/>
<ItemRef 
 ItemOID="IE.IETESTCD"
 OrderNumber="6"
 Mandatory="Yes"
 Role="Topic"/>
<ItemRef 
 ItemOID="IE.IETEST"
 OrderNumber="7"
 Mandatory="Yes"
 Role="Synonym Qualifier"/>
<ItemRef 
 ItemOID="IE.IECAT"
 OrderNumber="8"
 Mandatory="Yes"
 Role="Grouping Qualifier"/>
<ItemRef 
 ItemOID="IE.IEORRES"
 OrderNumber="9"
 Mandatory="Yes"
 Role="Record qualifier"/>
<ItemRef 
 ItemOID="IE.IESTRESC"
 OrderNumber="10"
 Mandatory="Yes"
 Role="Record qualifier"/>
<ItemRef 
 ItemOID="IE.VISITNUM"
 OrderNumber="11"
 Mandatory="No"
 Role="Timing"/>
<ItemRef 
 ItemOID="IE.VISIT"
 OrderNumber="12"
 Mandatory="No"
 Role="Timing"/>
<def:leaf 
 ID="Location.IE"
 xlink:href="ie.xpt">
<def:title>m5/Datasets
/efc6193
/tabulation/ie.xpt</def:title>
</def:leaf>
</ItemGroupDef>
<ItemGroupDef 
 OID="LB"
 Name="LB"
 Repeating="Yes"
 IsReferenceData="No"
 SASDatasetName="LB"
 Purpose="Tabulation"
 def:Label="LABORATORY TESTS"
 def:Structure="Multiple records per subject"
 def:DomainKeys="STUDYID,USUBJID,LBTESTCD,VISITNUM"
 def:Class="Findings"
 def:ArchiveLocationID="location.LB">
<ItemRef 
 ItemOID="LB.STUDYID"
 OrderNumber="1"
 Mandatory="Yes"
 Role="Identifier"/>
<ItemRef 
 ItemOID="LB.DOMAIN"
 OrderNumber="2"
 Mandatory="Yes"
 Role="Identifier"/>
<ItemRef 
 ItemOID="LB.USUBJID"
 OrderNumber="3"
 Mandatory="Yes"
 Role="Identifier"/>
<ItemRef 
 ItemOID="LB.LBSEQ"
 OrderNumber="4"
 Mandatory="Yes"
 Role="Identifier"/>
<ItemRef 
 ItemOID="LB.LBTESTCD"
 OrderNumber="5"
 Mandatory="Yes"
 Role="Topic"/>
<ItemRef 
 ItemOID="LB.LBTEST"
 OrderNumber="6"
 Mandatory="Yes"
 Role="Synonym Qualifier"/>
<ItemRef 
 ItemOID="LB.LBCAT"
 OrderNumber="7"
 Mandatory="No"
 Role="Grouping Qualifier"/>
<ItemRef 
 ItemOID="LB.LBSCAT"
 OrderNumber="8"
 Mandatory="No"
 Role="Grouping Qualifier"/>
<ItemRef 
 ItemOID="LB.LBORRES"
 OrderNumber="9"
 Mandatory="No"
 Role="Result Qualifier"/>
<ItemRef 
 ItemOID="LB.LBORRESU"
 OrderNumber="10"
 Mandatory="No"
 Role="Variable Qualifier"/>
<ItemRef 
 ItemOID="LB.LBORNRLO"
 OrderNumber="11"
 Mandatory="No"
 Role="Variable Qualifier"/>
<ItemRef 
 ItemOID="LB.LBORNRHI"
 OrderNumber="12"
 Mandatory="No"
 Role="Variable Qualifier"/>
<ItemRef 
 ItemOID="LB.LBSTRESC"
 OrderNumber="13"
 Mandatory="No"
 Role="Result Qualifier"/>
<ItemRef 
 ItemOID="LB.LBSTRESN"
 OrderNumber="14"
 Mandatory="No"
 Role="Result Qualifier"/>
<ItemRef 
 ItemOID="LB.LBSTRESU"
 OrderNumber="15"
 Mandatory="No"
 Role="Variable Qualifier"/>
<ItemRef 
 ItemOID="LB.LBSTNRLO"
 OrderNumber="16"
 Mandatory="No"
 Role="Variable Qualifier"/>
<ItemRef 
 ItemOID="LB.LBSTNRHI"
 OrderNumber="17"
 Mandatory="No"
 Role="Variable Qualifier"/>
<ItemRef 
 ItemOID="LB.LBNRIND"
 OrderNumber="18"
 Mandatory="No"
 Role="Variable Qualifier"/>
<ItemRef 
 ItemOID="LB.LBTOX"
 OrderNumber="19"
 Mandatory="No"
 Role="Variable Qualifier"/>
<ItemRef 
 ItemOID="LB.LBTOXGR"
 OrderNumber="20"
 Mandatory="No"
 Role="Variable Qualifier"/>
<ItemRef 
 ItemOID="LB.LBSTAT"
 OrderNumber="20"
 Mandatory="No"
 Role="Record qualifier"/>
<ItemRef 
 ItemOID="LB.LBBLFL"
 OrderNumber="21"
 Mandatory="No"
 Role="Record qualifier"/>
<ItemRef 
 ItemOID="LB.VISITNUM"
 OrderNumber="22"
 Mandatory="No"
 Role="Timing"/>
<ItemRef 
 ItemOID="LB.VISIT"
 OrderNumber="23"
 Mandatory="No"
 Role="Timing"/>
<ItemRef 
 ItemOID="LB.LBDTC"
 OrderNumber="24"
 Mandatory="No"
 Role="Timing"/>
<ItemRef 
 ItemOID="LB.LBDY"
 OrderNumber="25"
 Mandatory="No"
 Role="Timing"/>
<def:leaf 
 ID="Location.LB"
 xlink:href="lb.xpt">
<def:title>m5/Datasets
/efc6193
/tabulation/lb.xpt</def:title>
</def:leaf>
</ItemGroupDef>
<ItemGroupDef 
 OID="LS"
 Name="LS"
 Repeating="Yes"
 IsReferenceData="No"
 SASDatasetName="LS"
 Purpose="Tabulation"
 def:Label="LESIONS"
 def:Structure="Multiple records per subject"
 def:DomainKeys="STUDYID,USUBJID,LSTESTCD,VISITNUM,LSSPID"
 def:Class="Findings"
 def:ArchiveLocationID="location.LS">
<ItemRef 
 ItemOID="LS.STUDYID"
 OrderNumber="1"
 Mandatory="Yes"
 Role="Identifier"/>
<ItemRef 
 ItemOID="LS.DOMAIN"
 OrderNumber="2"
 Mandatory="Yes"
 Role="Identifier"/>
<ItemRef 
 ItemOID="LS.USUBJID"
 OrderNumber="3"
 Mandatory="Yes"
 Role="Identifier"/>
<ItemRef 
 ItemOID="LS.LSSEQ"
 OrderNumber="4"
 Mandatory="Yes"
 Role="Identifier"/>
<ItemRef 
 ItemOID="LS.LSSPID"
 OrderNumber="5"
 Mandatory="No"
 Role="Identifier"/>
<ItemRef 
 ItemOID="LS.LSTESTCD"
 OrderNumber="6"
 Mandatory="Yes"
 Role="Topic"/>
<ItemRef 
 ItemOID="LS.LSTEST"
 OrderNumber="7"
 Mandatory="Yes"
 Role="Synonym Qualifier"/>
<ItemRef 
 ItemOID="LS.LSCAT"
 OrderNumber="8"
 Mandatory="No"
 Role="Grouping Qualifier"/>
<ItemRef 
 ItemOID="LS.LSLOC"
 OrderNumber="9"
 Mandatory="No"
 Role="Record qualifier"/>
<ItemRef 
 ItemOID="LS.LSORRES"
 OrderNumber="10"
 Mandatory="No"
 Role="Result Qualifier"/>
<ItemRef 
 ItemOID="LS.LSORRESU"
 OrderNumber="11"
 Mandatory="No"
 Role="Variable Qualifier"/>
<ItemRef 
 ItemOID="LS.LSSTRESC"
 OrderNumber="12"
 Mandatory="No"
 Role="Result Qualifier"/>
<ItemRef 
 ItemOID="LS.LSSTRESN"
 OrderNumber="13"
 Mandatory="No"
 Role="Result Qualifier"/>
<ItemRef 
 ItemOID="LS.LSSTRESU"
 OrderNumber="14"
 Mandatory="No"
 Role="Variable Qualifier"/>
<ItemRef 
 ItemOID="LS.LSMETHOD"
 OrderNumber="15"
 Mandatory="No"
 Role="Record qualifier"/>
<ItemRef 
 ItemOID="LS.LSSTAT"
 OrderNumber="16"
 Mandatory="No"
 Role="Record qualifier"/>
<ItemRef 
 ItemOID="LS.LSBLFL"
 OrderNumber="17"
 Mandatory="No"
 Role="Record qualifier"/>
<ItemRef 
 ItemOID="LS.VISITNUM"
 OrderNumber="18"
 Mandatory="No"
 Role="Timing"/>
<ItemRef 
 ItemOID="LS.VISIT"
 OrderNumber="19"
 Mandatory="No"
 Role="Timing"/>
<ItemRef 
 ItemOID="LS.LSDTC"
 OrderNumber="20"
 Mandatory="No"
 Role="Timing"/>
<def:leaf 
 ID="Location.LS"
 xlink:href="ls.xpt">
<def:title>m5/Datasets
/efc6193
/tabulation/ls.xpt</def:title>
</def:leaf>
</ItemGroupDef>
<ItemGroupDef 
 OID="PE"
 Name="PE"
 Repeating="Yes"
 IsReferenceData="No"
 SASDatasetName="PE"
 Purpose="Tabulation"
 def:Label="PHYSICAL EXAMINATION"
 def:Structure="One record per subject or body system or body system finding"
 def:DomainKeys="STUDYID,USUBJID,VISITNUM,PETESTCD"
 def:Class="Findings"
 def:ArchiveLocationID="location.PE">
<ItemRef 
 ItemOID="PE.STUDYID"
 OrderNumber="1"
 Mandatory="Yes"
 Role="Identifier"/>
<ItemRef 
 ItemOID="PE.DOMAIN"
 OrderNumber="2"
 Mandatory="Yes"
 Role="Identifier"/>
<ItemRef 
 ItemOID="PE.USUBJID"
 OrderNumber="3"
 Mandatory="Yes"
 Role="Identifier"/>
<ItemRef 
 ItemOID="PE.PESEQ"
 OrderNumber="4"
 Mandatory="Yes"
 Role="Identifier"/>
<ItemRef 
 ItemOID="PE.PETESTCD"
 OrderNumber="5"
 Mandatory="Yes"
 Role="Topic"/>
<ItemRef 
 ItemOID="PE.PETEST"
 OrderNumber="6"
 Mandatory="Yes"
 Role="Synonym Qualifier"/>
<ItemRef 
 ItemOID="PE.PEORRES"
 OrderNumber="7"
 Mandatory="No"
 Role="Result Qualifier"/>
<ItemRef 
 ItemOID="PE.PESTRESC"
 OrderNumber="8"
 Mandatory="No"
 Role="Result Qualifier"/>
<ItemRef 
 ItemOID="PE.PESTRESN"
 OrderNumber="9"
 Mandatory="No"
 Role="Result Qualifier"/>
<ItemRef 
 ItemOID="PE.PESTRESU"
 OrderNumber="10"
 Mandatory="No"
 Role="Result Qualifier"/>
<ItemRef 
 ItemOID="PE.PEMETHOD"
 OrderNumber="11"
 Mandatory="No"
 Role="Result Qualifier"/>
<ItemRef 
 ItemOID="PE.PEBLFL"
 OrderNumber="12"
 Mandatory="No"
 Role="Result Qualifier"/>
<ItemRef 
 ItemOID="PE.VISITNUM"
 OrderNumber="13"
 Mandatory="No"
 Role="Timing"/>
<ItemRef 
 ItemOID="PE.VISIT"
 OrderNumber="14"
 Mandatory="No"
 Role="Timing"/>
<ItemRef 
 ItemOID="PE.PEDTC"
 OrderNumber="15"
 Mandatory="No"
 Role="Timing"/>
<ItemRef 
 ItemOID="PE.PEDY"
 OrderNumber="16"
 Mandatory="No"
 Role="Timing"/>
<def:leaf 
 ID="Location.PE"
 xlink:href="pe.xpt">
<def:title>m5/Datasets
/efc6193
/tabulation/pe.xpt</def:title>
</def:leaf>
</ItemGroupDef>
<ItemGroupDef 
 OID="PN"
 Name="PN"
 Repeating="Yes"
 IsReferenceData="No"
 SASDatasetName="PN"
 Purpose="Tabulation"
 def:Label="PAIN INTENSITY ASSESSMENT"
 def:Structure="Multiple records per subject"
 def:DomainKeys="STUDYID,USUBJID,PNTESTCD,VISITNUM,PNDTC,PNSPID"
 def:Class="Findings"
 def:ArchiveLocationID="location.PN">
<ItemRef 
 ItemOID="PN.STUDYID"
 OrderNumber="1"
 Mandatory="Yes"
 Role="Identifier"/>
<ItemRef 
 ItemOID="PN.DOMAIN"
 OrderNumber="2"
 Mandatory="Yes"
 Role="Identifier"/>
<ItemRef 
 ItemOID="PN.USUBJID"
 OrderNumber="3"
 Mandatory="Yes"
 Role="Identifier"/>
<ItemRef 
 ItemOID="PN.PNSEQ"
 OrderNumber="4"
 Mandatory="Yes"
 Role="Identifier"/>
<ItemRef 
 ItemOID="PN.PNSPID"
 OrderNumber="5"
 Mandatory="No"
 Role="Identifier"/>
<ItemRef 
 ItemOID="PN.PNTESTCD"
 OrderNumber="6"
 Mandatory="Yes"
 Role="Topic"/>
<ItemRef 
 ItemOID="PN.PNTEST"
 OrderNumber="7"
 Mandatory="Yes"
 Role="Synonym Qualifier"/>
<ItemRef 
 ItemOID="PN.PNCAT"
 OrderNumber="8"
 Mandatory="No"
 Role="Grouping Qualifier"/>
<ItemRef 
 ItemOID="PN.PNORRES"
 OrderNumber="9"
 Mandatory="No"
 Role="Result Qualifier"/>
<ItemRef 
 ItemOID="PN.PNORRESU"
 OrderNumber="10"
 Mandatory="No"
 Role="Variable Qualifier"/>
<ItemRef 
 ItemOID="PN.PNSTRESC"
 OrderNumber="11"
 Mandatory="No"
 Role="Result Qualifier"/>
<ItemRef 
 ItemOID="PN.PNSTRESN"
 OrderNumber="12"
 Mandatory="No"
 Role="Result Qualifier"/>
<ItemRef 
 ItemOID="PN.PNSTRESU"
 OrderNumber="13"
 Mandatory="No"
 Role="Variable Qualifier"/>
<ItemRef 
 ItemOID="PN.PNSTAT"
 OrderNumber="14"
 Mandatory="No"
 Role="Record qualifier"/>
<ItemRef 
 ItemOID="PN.VISITNUM"
 OrderNumber="15"
 Mandatory="No"
 Role="Timing"/>
<ItemRef 
 ItemOID="PN.VISIT"
 OrderNumber="16"
 Mandatory="No"
 Role="Timing"/>
<ItemRef 
 ItemOID="PN.PNDTC"
 OrderNumber="17"
 Mandatory="No"
 Role="Timing"/>
<def:leaf 
 ID="Location.PN"
 xlink:href="pn.xpt">
<def:title>m5/Datasets
/efc6193
/tabulation/pn.xpt</def:title>
</def:leaf>
</ItemGroupDef>
<ItemGroupDef 
 OID="SC"
 Name="SC"
 Repeating="No"
 IsReferenceData="No"
 SASDatasetName="SC"
 Purpose="Tabulation"
 def:Label="SUBJECT CHARACTERISTICS"
 def:Structure="One record per characteristic per subject"
 def:DomainKeys="STUDYID,USUBJID,SCTESTCD"
 def:Class="Findings"
 def:ArchiveLocationID="location.SC">
<ItemRef 
 ItemOID="SC.STUDYID"
 OrderNumber="1"
 Mandatory="Yes"
 Role="Identifier"/>
<ItemRef 
 ItemOID="SC.DOMAIN"
 OrderNumber="2"
 Mandatory="Yes"
 Role="Identifier"/>
<ItemRef 
 ItemOID="SC.USUBJID"
 OrderNumber="3"
 Mandatory="Yes"
 Role="Identifier"/>
<ItemRef 
 ItemOID="SC.SCSEQ"
 OrderNumber="4"
 Mandatory="Yes"
 Role="Identifier"/>
<ItemRef 
 ItemOID="SC.SCTESTCD"
 OrderNumber="5"
 Mandatory="Yes"
 Role="Topic"/>
<ItemRef 
 ItemOID="SC.SCTEST"
 OrderNumber="6"
 Mandatory="Yes"
 Role="Synonym Qualifier"/>
<ItemRef 
 ItemOID="SC.SCORRES"
 OrderNumber="7"
 Mandatory="No"
 Role="Result Qualifier"/>
<ItemRef 
 ItemOID="SC.SCSTRESC"
 OrderNumber="8"
 Mandatory="No"
 Role="Result Qualifier"/>
<ItemRef 
 ItemOID="SC.SCDTC"
 OrderNumber="9"
 Mandatory="No"
 Role="Timing"/>
<ItemRef 
 ItemOID="SC.SCDY"
 OrderNumber="10"
 Mandatory="No"
 Role="Timing"/>
<def:leaf 
 ID="Location.SC"
 xlink:href="sc.xpt">
<def:title>m5/Datasets
/efc6193
/tabulation/sc.xpt</def:title>
</def:leaf>
</ItemGroupDef>
<ItemGroupDef 
 OID="VS"
 Name="VS"
 Repeating="Yes"
 IsReferenceData="No"
 SASDatasetName="VS"
 Purpose="Tabulation"
 def:Label="VITAL SIGNS"
 def:Structure="One record per vital sign per time point per visit per subject"
 def:DomainKeys="STUDYID,USUBJID,VSTESTCD,VISITNUM"
 def:Class="Findings"
 def:ArchiveLocationID="location.VS">
<ItemRef 
 ItemOID="VS.STUDYID"
 OrderNumber="1"
 Mandatory="Yes"
 Role="Identifier"/>
<ItemRef 
 ItemOID="VS.DOMAIN"
 OrderNumber="2"
 Mandatory="Yes"
 Role="Identifier"/>
<ItemRef 
 ItemOID="VS.USUBJID"
 OrderNumber="3"
 Mandatory="Yes"
 Role="Identifier"/>
<ItemRef 
 ItemOID="VS.VSSEQ"
 OrderNumber="4"
 Mandatory="Yes"
 Role="Identifier"/>
<ItemRef 
 ItemOID="VS.VSTESTCD"
 OrderNumber="5"
 Mandatory="Yes"
 Role="Topic"/>
<ItemRef 
 ItemOID="VS.VSTEST"
 OrderNumber="6"
 Mandatory="Yes"
 Role="Synonym Qualifier"/>
<ItemRef 
 ItemOID="VS.VSORRES"
 OrderNumber="7"
 Mandatory="No"
 Role="Result Qualifier"/>
<ItemRef 
 ItemOID="VS.VSORRESU"
 OrderNumber="8"
 Mandatory="No"
 Role="Variable Qualifier"/>
<ItemRef 
 ItemOID="VS.VSSTRESC"
 OrderNumber="9"
 Mandatory="No"
 Role="Result Qualifier"/>
<ItemRef 
 ItemOID="VS.VSSTRESN"
 OrderNumber="10"
 Mandatory="No"
 Role="Result Qualifier"/>
<ItemRef 
 ItemOID="VS.VSSTRESU"
 OrderNumber="11"
 Mandatory="No"
 Role="Variable Qualifier"/>
<ItemRef 
 ItemOID="VS.VSMETHOD"
 OrderNumber="12"
 Mandatory="No"
 Role="Record qualifier"/>
<ItemRef 
 ItemOID="VS.VSBLFL"
 OrderNumber="13"
 Mandatory="No"
 Role="Record qualifier"/>
<ItemRef 
 ItemOID="VS.VSDRVFL"
 OrderNumber="14"
 Mandatory="No"
 Role="Selection"/>
<ItemRef 
 ItemOID="VS.VISITNUM"
 OrderNumber="15"
 Mandatory="No"
 Role="Timing"/>
<ItemRef 
 ItemOID="VS.VISIT"
 OrderNumber="16"
 Mandatory="No"
 Role="Timing"/>
<ItemRef 
 ItemOID="VS.VSDTC"
 OrderNumber="17"
 Mandatory="No"
 Role="Timing"/>
<ItemRef 
 ItemOID="VS.VSDY"
 OrderNumber="18"
 Mandatory="No"
 Role="Timing"/>
<def:leaf 
 ID="Location.VS"
 xlink:href="vs.xpt">
<def:title>m5/Datasets
/efc6193
/tabulation/vs.xpt</def:title>
</def:leaf>
</ItemGroupDef>
<ItemGroupDef 
 OID="SUPPAE"
 Name="SUPPAE"
 Repeating="Yes"
 IsReferenceData="No"
 SASDatasetName="SUPPAE"
 Purpose="Tabulation"
 def:Label="SUPPLEMENTAL QUALIFIERS FOR AE"
 def:Structure="One record per qualifier"
 def:DomainKeys="STUDYID,RDOMAIN,USUBJID,IDVAR,IDVARVAL,QNAM"
 def:Class="Relationship"
 def:ArchiveLocationID="location.SUPPAE">
<ItemRef 
 ItemOID="SUPPAE.STUDYID"
 OrderNumber="1"
 Mandatory="Yes"
 Role="Identifier"/>
<ItemRef 
 ItemOID="SUPPAE.RDOMAIN"
 OrderNumber="2"
 Mandatory="Yes"
 Role="Identifier"/>
<ItemRef 
 ItemOID="SUPPAE.USUBJID"
 OrderNumber="3"
 Mandatory="Yes"
 Role="Identifier"/>
<ItemRef 
 ItemOID="SUPPAE.IDVAR"
 OrderNumber="4"
 Mandatory="No"
 Role="Record qualifier"/>
<ItemRef 
 ItemOID="SUPPAE.IDVARVAL"
 OrderNumber="5"
 Mandatory="No"
 Role="Record qualifier"/>
<ItemRef 
 ItemOID="SUPPAE.QNAM"
 OrderNumber="6"
 Mandatory="Yes"
 Role="Record qualifier"/>
<ItemRef 
 ItemOID="SUPPAE.QLABEL"
 OrderNumber="7"
 Mandatory="Yes"
 Role="Record qualifier"/>
<ItemRef 
 ItemOID="SUPPAE.QVAL"
 OrderNumber="8"
 Mandatory="Yes"
 Role="Record qualifier"/>
<ItemRef 
 ItemOID="SUPPAE.QORIG"
 OrderNumber="9"
 Mandatory="Yes"
 Role="Record qualifier"/>
<ItemRef 
 ItemOID="SUPPAE.QEVAL"
 OrderNumber="10"
 Mandatory="No"
 Role="Record qualifier"/>
<def:leaf 
 ID="Location.SUPPAE"
 xlink:href="suppae.xpt">
<def:title>m5/Datasets
/efc6193
/tabulation/suppae.xpt</def:title>
</def:leaf>
</ItemGroupDef>
<ItemGroupDef 
 OID="SUPPCM"
 Name="SUPPCM"
 Repeating="Yes"
 IsReferenceData="No"
 SASDatasetName="SUPPCM"
 Purpose="Tabulation"
 def:Label="SUPPLEMENTAL QUALIFIERS FOR CM"
 def:Structure="One record per qualifier"
 def:DomainKeys="STUDYID,RDOMAIN,USUBJID,IDVAR,IDVARVAL,QNAM"
 def:Class="Relationship"
 def:ArchiveLocationID="location.SUPPCM">
<ItemRef 
 ItemOID="SUPPCM.STUDYID"
 OrderNumber="1"
 Mandatory="Yes"
 Role="Identifier"/>
<ItemRef 
 ItemOID="SUPPCM.RDOMAIN"
 OrderNumber="2"
 Mandatory="Yes"
 Role="Identifier"/>
<ItemRef 
 ItemOID="SUPPCM.USUBJID"
 OrderNumber="3"
 Mandatory="Yes"
 Role="Identifier"/>
<ItemRef 
 ItemOID="SUPPCM.IDVAR"
 OrderNumber="4"
 Mandatory="No"
 Role="Record qualifier"/>
<ItemRef 
 ItemOID="SUPPCM.IDVARVAL"
 OrderNumber="5"
 Mandatory="No"
 Role="Record qualifier"/>
<ItemRef 
 ItemOID="SUPPCM.QNAM"
 OrderNumber="6"
 Mandatory="Yes"
 Role="Record qualifier"/>
<ItemRef 
 ItemOID="SUPPCM.QLABEL"
 OrderNumber="7"
 Mandatory="Yes"
 Role="Record qualifier"/>
<ItemRef 
 ItemOID="SUPPCM.QVAL"
 OrderNumber="8"
 Mandatory="Yes"
 Role="Record qualifier"/>
<ItemRef 
 ItemOID="SUPPCM.QORIG"
 OrderNumber="9"
 Mandatory="Yes"
 Role="Record qualifier"/>
<ItemRef 
 ItemOID="SUPPCM.QEVAL"
 OrderNumber="10"
 Mandatory="No"
 Role="Record qualifier"/>
<def:leaf 
 ID="Location.SUPPCM"
 xlink:href="suppcm.xpt">
<def:title>m5/Datasets
/efc6193
/tabulation/suppcm.xpt</def:title>
</def:leaf>
</ItemGroupDef>
<ItemGroupDef 
 OID="SUPPDM"
 Name="SUPPDM"
 Repeating="Yes"
 IsReferenceData="No"
 SASDatasetName="SUPPDM"
 Purpose="Tabulation"
 def:Label="SUPPLEMENTAL QUALIFIERS FOR DM"
 def:Structure="One record per qualifier"
 def:DomainKeys="STUDYID,RDOMAIN,USUBJID,IDVAR,IDVARVAL,QNAM"
 def:Class="Relationship"
 def:ArchiveLocationID="location.SUPPDM">
<ItemRef 
 ItemOID="SUPPDM.STUDYID"
 OrderNumber="1"
 Mandatory="Yes"
 Role="Identifier"/>
<ItemRef 
 ItemOID="SUPPDM.RDOMAIN"
 OrderNumber="2"
 Mandatory="Yes"
 Role="Identifier"/>
<ItemRef 
 ItemOID="SUPPDM.USUBJID"
 OrderNumber="3"
 Mandatory="Yes"
 Role="Identifier"/>
<ItemRef 
 ItemOID="SUPPDM.IDVAR"
 OrderNumber="4"
 Mandatory="No"
 Role="Record qualifier"/>
<ItemRef 
 ItemOID="SUPPDM.IDVARVAL"
 OrderNumber="5"
 Mandatory="No"
 Role="Record qualifier"/>
<ItemRef 
 ItemOID="SUPPDM.QNAM"
 OrderNumber="6"
 Mandatory="Yes"
 Role="Record qualifier"/>
<ItemRef 
 ItemOID="SUPPDM.QLABEL"
 OrderNumber="7"
 Mandatory="Yes"
 Role="Record qualifier"/>
<ItemRef 
 ItemOID="SUPPDM.QVAL"
 OrderNumber="8"
 Mandatory="Yes"
 Role="Record qualifier"/>
<ItemRef 
 ItemOID="SUPPDM.QORIG"
 OrderNumber="9"
 Mandatory="Yes"
 Role="Record qualifier"/>
<ItemRef 
 ItemOID="SUPPDM.QEVAL"
 OrderNumber="10"
 Mandatory="No"
 Role="Record qualifier"/>
<def:leaf 
 ID="Location.SUPPDM"
 xlink:href="suppdm.xpt">
<def:title>m5/Datasets
/efc6193
/tabulation/suppdm.xpt</def:title>
</def:leaf>
</ItemGroupDef>
<ItemGroupDef 
 OID="SUPPDS"
 Name="SUPPDS"
 Repeating="Yes"
 IsReferenceData="No"
 SASDatasetName="SUPPDS"
 Purpose="Tabulation"
 def:Label="SUPPLEMENTAL QUALIFIERS FOR DS"
 def:Structure="One record per qualifier"
 def:DomainKeys="STUDYID,RDOMAIN,USUBJID,IDVAR,IDVARVAL,QNAM"
 def:Class="Relationship"
 def:ArchiveLocationID="location.SUPPDS">
<ItemRef 
 ItemOID="SUPPDS.STUDYID"
 OrderNumber="1"
 Mandatory="Yes"
 Role="Identifier"/>
<ItemRef 
 ItemOID="SUPPDS.RDOMAIN"
 OrderNumber="2"
 Mandatory="Yes"
 Role="Identifier"/>
<ItemRef 
 ItemOID="SUPPDS.USUBJID"
 OrderNumber="3"
 Mandatory="Yes"
 Role="Identifier"/>
<ItemRef 
 ItemOID="SUPPDS.IDVAR"
 OrderNumber="4"
 Mandatory="No"
 Role="Record qualifier"/>
<ItemRef 
 ItemOID="SUPPDS.IDVARVAL"
 OrderNumber="5"
 Mandatory="No"
 Role="Record qualifier"/>
<ItemRef 
 ItemOID="SUPPDS.QNAM"
 OrderNumber="6"
 Mandatory="Yes"
 Role="Record qualifier"/>
<ItemRef 
 ItemOID="SUPPDS.QLABEL"
 OrderNumber="7"
 Mandatory="Yes"
 Role="Record qualifier"/>
<ItemRef 
 ItemOID="SUPPDS.QVAL"
 OrderNumber="8"
 Mandatory="Yes"
 Role="Record qualifier"/>
<ItemRef 
 ItemOID="SUPPDS.QORIG"
 OrderNumber="9"
 Mandatory="Yes"
 Role="Record qualifier"/>
<ItemRef 
 ItemOID="SUPPDS.QEVAL"
 OrderNumber="10"
 Mandatory="No"
 Role="Record qualifier"/>
<def:leaf 
 ID="Location.SUPPDS"
 xlink:href="suppds.xpt">
<def:title>m5/Datasets
/efc6193
/tabulation/suppds.xpt</def:title>
</def:leaf>
</ItemGroupDef>
<ItemGroupDef 
 OID="SUPPEG"
 Name="SUPPEG"
 Repeating="Yes"
 IsReferenceData="No"
 SASDatasetName="SUPPEG"
 Purpose="Tabulation"
 def:Label="SUPPLEMENTAL QUALIFIERS FOR EG"
 def:Structure="One record per qualifier"
 def:DomainKeys="STUDYID,RDOMAIN,USUBJID,IDVAR,IDVARVAL,QNAM"
 def:Class="Relationship"
 def:ArchiveLocationID="location.SUPPEG">
<ItemRef 
 ItemOID="SUPPEG.STUDYID"
 OrderNumber="1"
 Mandatory="Yes"
 Role="Identifier"/>
<ItemRef 
 ItemOID="SUPPEG.RDOMAIN"
 OrderNumber="2"
 Mandatory="Yes"
 Role="Identifier"/>
<ItemRef 
 ItemOID="SUPPEG.USUBJID"
 OrderNumber="3"
 Mandatory="Yes"
 Role="Identifier"/>
<ItemRef 
 ItemOID="SUPPEG.IDVAR"
 OrderNumber="4"
 Mandatory="No"
 Role="Record qualifier"/>
<ItemRef 
 ItemOID="SUPPEG.IDVARVAL"
 OrderNumber="5"
 Mandatory="No"
 Role="Record qualifier"/>
<ItemRef 
 ItemOID="SUPPEG.QNAM"
 OrderNumber="6"
 Mandatory="Yes"
 Role="Record qualifier"/>
<ItemRef 
 ItemOID="SUPPEG.QLABEL"
 OrderNumber="7"
 Mandatory="Yes"
 Role="Record qualifier"/>
<ItemRef 
 ItemOID="SUPPEG.QVAL"
 OrderNumber="8"
 Mandatory="Yes"
 Role="Record qualifier"/>
<ItemRef 
 ItemOID="SUPPEG.QORIG"
 OrderNumber="9"
 Mandatory="Yes"
 Role="Record qualifier"/>
<ItemRef 
 ItemOID="SUPPEG.QEVAL"
 OrderNumber="10"
 Mandatory="No"
 Role="Record qualifier"/>
<def:leaf 
 ID="Location.SUPPEG"
 xlink:href="suppeg.xpt">
<def:title>m5/Datasets
/efc6193
/tabulation/suppeg.xpt</def:title>
</def:leaf>
</ItemGroupDef>
<ItemGroupDef 
 OID="SUPPEX"
 Name="SUPPEX"
 Repeating="Yes"
 IsReferenceData="No"
 SASDatasetName="SUPPEX"
 Purpose="Tabulation"
 def:Label="SUPPLEMENTAL QUALIFIERS FOR EX"
 def:Structure="One record per qualifier"
 def:DomainKeys="STUDYID,RDOMAIN,USUBJID,IDVAR,IDVARVAL,QNAM"
 def:Class="Relationship"
 def:ArchiveLocationID="location.SUPPEX">
<ItemRef 
 ItemOID="SUPPEX.STUDYID"
 OrderNumber="1"
 Mandatory="Yes"
 Role="Identifier"/>
<ItemRef 
 ItemOID="SUPPEX.RDOMAIN"
 OrderNumber="2"
 Mandatory="Yes"
 Role="Identifier"/>
<ItemRef 
 ItemOID="SUPPEX.USUBJID"
 OrderNumber="3"
 Mandatory="Yes"
 Role="Identifier"/>
<ItemRef 
 ItemOID="SUPPEX.IDVAR"
 OrderNumber="4"
 Mandatory="No"
 Role="Record qualifier"/>
<ItemRef 
 ItemOID="SUPPEX.IDVARVAL"
 OrderNumber="5"
 Mandatory="No"
 Role="Record qualifier"/>
<ItemRef 
 ItemOID="SUPPEX.QNAM"
 OrderNumber="6"
 Mandatory="Yes"
 Role="Record qualifier"/>
<ItemRef 
 ItemOID="SUPPEX.QLABEL"
 OrderNumber="7"
 Mandatory="Yes"
 Role="Record qualifier"/>
<ItemRef 
 ItemOID="SUPPEX.QVAL"
 OrderNumber="8"
 Mandatory="Yes"
 Role="Record qualifier"/>
<ItemRef 
 ItemOID="SUPPEX.QORIG"
 OrderNumber="9"
 Mandatory="Yes"
 Role="Record qualifier"/>
<ItemRef 
 ItemOID="SUPPEX.QEVAL"
 OrderNumber="10"
 Mandatory="No"
 Role="Record qualifier"/>
<def:leaf 
 ID="Location.SUPPEX"
 xlink:href="suppex.xpt">
<def:title>m5/Datasets
/efc6193
/tabulation/suppex.xpt</def:title>
</def:leaf>
</ItemGroupDef>
<ItemGroupDef 
 OID="SUPPIE"
 Name="SUPPIE"
 Repeating="Yes"
 IsReferenceData="No"
 SASDatasetName="SUPPIE"
 Purpose="Tabulation"
 def:Label="SUPPLEMENTAL QUALIFIERS FOR IE"
 def:Structure="One record per qualifier"
 def:DomainKeys="STUDYID,RDOMAIN,USUBJID,IDVAR,IDVARVAL,QNAM"
 def:Class="Relationship"
 def:ArchiveLocationID="location.SUPPIE">
<ItemRef 
 ItemOID="SUPPIE.STUDYID"
 OrderNumber="1"
 Mandatory="Yes"
 Role="Identifier"/>
<ItemRef 
 ItemOID="SUPPIE.RDOMAIN"
 OrderNumber="2"
 Mandatory="Yes"
 Role="Identifier"/>
<ItemRef 
 ItemOID="SUPPIE.USUBJID"
 OrderNumber="3"
 Mandatory="Yes"
 Role="Identifier"/>
<ItemRef 
 ItemOID="SUPPIE.IDVAR"
 OrderNumber="4"
 Mandatory="No"
 Role="Record qualifier"/>
<ItemRef 
 ItemOID="SUPPIE.IDVARVAL"
 OrderNumber="5"
 Mandatory="No"
 Role="Record qualifier"/>
<ItemRef 
 ItemOID="SUPPIE.QNAM"
 OrderNumber="6"
 Mandatory="Yes"
 Role="Record qualifier"/>
<ItemRef 
 ItemOID="SUPPIE.QLABEL"
 OrderNumber="7"
 Mandatory="Yes"
 Role="Record qualifier"/>
<ItemRef 
 ItemOID="SUPPIE.QVAL"
 OrderNumber="8"
 Mandatory="Yes"
 Role="Record qualifier"/>
<ItemRef 
 ItemOID="SUPPIE.QORIG"
 OrderNumber="9"
 Mandatory="Yes"
 Role="Record qualifier"/>
<ItemRef 
 ItemOID="SUPPIE.QEVAL"
 OrderNumber="10"
 Mandatory="No"
 Role="Record qualifier"/>
<def:leaf 
 ID="Location.SUPPIE"
 xlink:href="suppie.xpt">
<def:title>m5/Datasets
/efc6193
/tabulation/suppie.xpt</def:title>
</def:leaf>
</ItemGroupDef>
<ItemGroupDef 
 OID="SUPPLB"
 Name="SUPPLB"
 Repeating="Yes"
 IsReferenceData="No"
 SASDatasetName="SUPPLB"
 Purpose="Tabulation"
 def:Label="SUPPLEMENTAL QUALIFIERS FOR LB"
 def:Structure="One record per qualifier"
 def:DomainKeys="STUDYID,RDOMAIN,USUBJID,IDVAR,IDVARVAL,QNAM"
 def:Class="Relationship"
 def:ArchiveLocationID="location.SUPPLB">
<ItemRef 
 ItemOID="SUPPLB.STUDYID"
 OrderNumber="1"
 Mandatory="Yes"
 Role="Identifier"/>
<ItemRef 
 ItemOID="SUPPLB.RDOMAIN"
 OrderNumber="2"
 Mandatory="Yes"
 Role="Record qualifier"/>
<ItemRef 
 ItemOID="SUPPLB.USUBJID"
 OrderNumber="3"
 Mandatory="Yes"
 Role="Identifier"/>
<ItemRef 
 ItemOID="SUPPLB.IDVAR"
 OrderNumber="4"
 Mandatory="No"
 Role="Record qualifier"/>
<ItemRef 
 ItemOID="SUPPLB.IDVARVAL"
 OrderNumber="5"
 Mandatory="No"
 Role="Record qualifier"/>
<ItemRef 
 ItemOID="SUPPLB.QNAM"
 OrderNumber="6"
 Mandatory="Yes"
 Role="Record qualifier"/>
<ItemRef 
 ItemOID="SUPPLB.QLABEL"
 OrderNumber="7"
 Mandatory="Yes"
 Role="Record qualifier"/>
<ItemRef 
 ItemOID="SUPPLB.QVAL"
 OrderNumber="8"
 Mandatory="Yes"
 Role="Record qualifier"/>
<ItemRef 
 ItemOID="SUPPLB.QORIG"
 OrderNumber="9"
 Mandatory="Yes"
 Role="Record qualifier"/>
<ItemRef 
 ItemOID="SUPPLB.QEVAL"
 OrderNumber="10"
 Mandatory="No"
 Role="Record qualifier"/>
<def:leaf 
 ID="Location.SUPPLB"
 xlink:href="supplb.xpt">
<def:title>m5/Datasets
/efc6193
/tabulation/supplb.xpt</def:title>
</def:leaf>
</ItemGroupDef>
<ItemGroupDef 
 OID="SUPPLS"
 Name="SUPPLS"
 Repeating="Yes"
 IsReferenceData="No"
 SASDatasetName="SUPPLS"
 Purpose="Tabulation"
 def:Label="SUPPLEMENTAL QUALIFIERS FOR LS"
 def:Structure="One record per qualifier"
 def:DomainKeys="STUDYID,RDOMAIN,USUBJID,IDVAR,IDVARVAL,QNAM"
 def:Class="Relationship"
 def:ArchiveLocationID="location.SUPPLS">
<ItemRef 
 ItemOID="SUPPLS.STUDYID"
 OrderNumber="1"
 Mandatory="Yes"
 Role="Identifier"/>
<ItemRef 
 ItemOID="SUPPLS.RDOMAIN"
 OrderNumber="2"
 Mandatory="Yes"
 Role="Record qualifier"/>
<ItemRef 
 ItemOID="SUPPLS.USUBJID"
 OrderNumber="3"
 Mandatory="Yes"
 Role="Identifier"/>
<ItemRef 
 ItemOID="SUPPLS.IDVAR"
 OrderNumber="4"
 Mandatory="No"
 Role="Record qualifier"/>
<ItemRef 
 ItemOID="SUPPLS.IDVARVAL"
 OrderNumber="5"
 Mandatory="No"
 Role="Record qualifier"/>
<ItemRef 
 ItemOID="SUPPLS.QNAM"
 OrderNumber="6"
 Mandatory="Yes"
 Role="Record qualifier"/>
<ItemRef 
 ItemOID="SUPPLS.QLABEL"
 OrderNumber="7"
 Mandatory="Yes"
 Role="Record qualifier"/>
<ItemRef 
 ItemOID="SUPPLS.QVAL"
 OrderNumber="8"
 Mandatory="Yes"
 Role="Record qualifier"/>
<ItemRef 
 ItemOID="SUPPLS.QORIG"
 OrderNumber="9"
 Mandatory="Yes"
 Role="Record qualifier"/>
<ItemRef 
 ItemOID="SUPPLS.QEVAL"
 OrderNumber="10"
 Mandatory="No"
 Role="Record qualifier"/>
<def:leaf 
 ID="Location.SUPPLS"
 xlink:href="suppls.xpt">
<def:title>m5/Datasets
/efc6193
/tabulation/suppls.xpt</def:title>
</def:leaf>
</ItemGroupDef>
<ItemGroupDef 
 OID="SUPPMH"
 Name="SUPPMH"
 Repeating="Yes"
 IsReferenceData="No"
 SASDatasetName="SUPPMH"
 Purpose="Tabulation"
 def:Label="SUPPLEMENTAL QUALIFIERS FOR MH"
 def:Structure="One record per qualifier"
 def:DomainKeys="STUDYID,RDOMAIN,USUBJID,IDVAR,IDVARVAL,QNAM"
 def:Class="Relationship"
 def:ArchiveLocationID="location.SUPPMH">
<ItemRef 
 ItemOID="SUPPMH.STUDYID"
 OrderNumber="1"
 Mandatory="Yes"
 Role="Identifier"/>
<ItemRef 
 ItemOID="SUPPMH.RDOMAIN"
 OrderNumber="2"
 Mandatory="Yes"
 Role="Record qualifier"/>
<ItemRef 
 ItemOID="SUPPMH.USUBJID"
 OrderNumber="3"
 Mandatory="Yes"
 Role="Identifier"/>
<ItemRef 
 ItemOID="SUPPMH.IDVAR"
 OrderNumber="4"
 Mandatory="No"
 Role="Record qualifier"/>
<ItemRef 
 ItemOID="SUPPMH.IDVARVAL"
 OrderNumber="5"
 Mandatory="No"
 Role="Record qualifier"/>
<ItemRef 
 ItemOID="SUPPMH.QNAM"
 OrderNumber="6"
 Mandatory="Yes"
 Role="Record qualifier"/>
<ItemRef 
 ItemOID="SUPPMH.QLABEL"
 OrderNumber="7"
 Mandatory="Yes"
 Role="Record qualifier"/>
<ItemRef 
 ItemOID="SUPPMH.QVAL"
 OrderNumber="8"
 Mandatory="Yes"
 Role="Record qualifier"/>
<ItemRef 
 ItemOID="SUPPMH.QORIG"
 OrderNumber="9"
 Mandatory="Yes"
 Role="Record qualifier"/>
<ItemRef 
 ItemOID="SUPPMH.QEVAL"
 OrderNumber="10"
 Mandatory="No"
 Role="Record qualifier"/>
<def:leaf 
 ID="Location.SUPPMH"
 xlink:href="suppmh.xpt">
<def:title>m5/Datasets
/efc6193
/tabulation/suppmh.xpt</def:title>
</def:leaf>
</ItemGroupDef>
<ItemGroupDef 
 OID="SUPPPE"
 Name="SUPPPE"
 Repeating="Yes"
 IsReferenceData="No"
 SASDatasetName="SUPPPE"
 Purpose="Tabulation"
 def:Label="SUPPLEMENTAL QUALIFIERS FOR PE"
 def:Structure="One record per qualifier"
 def:DomainKeys="STUDYID,RDOMAIN,USUBJID,IDVAR,IDVARVAL,QNAM"
 def:Class="Relationship"
 def:ArchiveLocationID="location.SUPPPE">
<ItemRef 
 ItemOID="SUPPPE.STUDYID"
 OrderNumber="1"
 Mandatory="Yes"
 Role="Identifier"/>
<ItemRef 
 ItemOID="SUPPPE.RDOMAIN"
 OrderNumber="2"
 Mandatory="Yes"
 Role="Record qualifier"/>
<ItemRef 
 ItemOID="SUPPPE.USUBJID"
 OrderNumber="3"
 Mandatory="Yes"
 Role="Identifier"/>
<ItemRef 
 ItemOID="SUPPPE.IDVAR"
 OrderNumber="4"
 Mandatory="No"
 Role="Record qualifier"/>
<ItemRef 
 ItemOID="SUPPPE.IDVARVAL"
 OrderNumber="5"
 Mandatory="No"
 Role="Record qualifier"/>
<ItemRef 
 ItemOID="SUPPPE.QNAM"
 OrderNumber="6"
 Mandatory="Yes"
 Role="Record qualifier"/>
<ItemRef 
 ItemOID="SUPPPE.QLABEL"
 OrderNumber="7"
 Mandatory="Yes"
 Role="Record qualifier"/>
<ItemRef 
 ItemOID="SUPPPE.QVAL"
 OrderNumber="8"
 Mandatory="Yes"
 Role="Record qualifier"/>
<ItemRef 
 ItemOID="SUPPPE.QORIG"
 OrderNumber="9"
 Mandatory="Yes"
 Role="Record qualifier"/>
<ItemRef 
 ItemOID="SUPPPE.QEVAL"
 OrderNumber="10"
 Mandatory="No"
 Role="Record qualifier"/>
<def:leaf 
 ID="Location.SUPPPE"
 xlink:href="supppe.xpt">
<def:title>m5/Datasets
/efc6193
/tabulation/supppe.xpt</def:title>
</def:leaf>
</ItemGroupDef>
<ItemGroupDef 
 OID="SUPPPR"
 Name="SUPPPR"
 Repeating="Yes"
 IsReferenceData="No"
 SASDatasetName="SUPPPR"
 Purpose="Tabulation"
 def:Label="SUPPLEMENTAL QUALIFIERS FOR PR"
 def:Structure="One record per qualifier"
 def:DomainKeys="STUDYID,RDOMAIN,USUBJID,IDVAR,IDVARVAL,QNAM"
 def:Class="Relationship"
 def:ArchiveLocationID="location.SUPPPR">
<ItemRef 
 ItemOID="SUPPPR.STUDYID"
 OrderNumber="1"
 Mandatory="Yes"
 Role="Identifier"/>
<ItemRef 
 ItemOID="SUPPPR.RDOMAIN"
 OrderNumber="2"
 Mandatory="Yes"
 Role="Record qualifier"/>
<ItemRef 
 ItemOID="SUPPPR.USUBJID"
 OrderNumber="3"
 Mandatory="Yes"
 Role="Identifier"/>
<ItemRef 
 ItemOID="SUPPPR.IDVAR"
 OrderNumber="4"
 Mandatory="No"
 Role="Record qualifier"/>
<ItemRef 
 ItemOID="SUPPPR.IDVARVAL"
 OrderNumber="5"
 Mandatory="No"
 Role="Record qualifier"/>
<ItemRef 
 ItemOID="SUPPPR.QNAM"
 OrderNumber="6"
 Mandatory="Yes"
 Role="Record qualifier"/>
<ItemRef 
 ItemOID="SUPPPR.QLABEL"
 OrderNumber="7"
 Mandatory="Yes"
 Role="Record qualifier"/>
<ItemRef 
 ItemOID="SUPPPR.QVAL"
 OrderNumber="8"
 Mandatory="Yes"
 Role="Record qualifier"/>
<ItemRef 
 ItemOID="SUPPPR.QORIG"
 OrderNumber="9"
 Mandatory="Yes"
 Role="Record qualifier"/>
<ItemRef 
 ItemOID="SUPPPR.QEVAL"
 OrderNumber="10"
 Mandatory="No"
 Role="Record qualifier"/>
<def:leaf 
 ID="Location.SUPPPR"
 xlink:href="supppr.xpt">
<def:title>m5/Datasets
/efc6193
/tabulation/supppr.xpt</def:title>
</def:leaf>
</ItemGroupDef>
<ItemDef 
 OID="AE.AEACN"
 Name="AEACN"
 DataType="text"
 Length="50"
 SASFieldName="AEACN"
 SignificantDigits="0"
 Origin="CRF Page 62"
 Comment="Possible values are :&quot;DELAYED&quot;,&quot;DELAYED AND REDUCED&quot;,&quot;DOSE REDUCED&quot;,&quot;INTERRUPTED&quot;,&quot;NONE&quot;,&quot;PERMANENTLY DISCONTINUED&quot;   "
 def:Label="Action Taken with Study Treatment">
<CodeListRef CodeListOID="AE.AEACN.AEACN"/>
</ItemDef>
<ItemDef 
 OID="AE.AEBODSYS"
 Name="AEBODSYS"
 DataType="text"
 Length="120"
 SASFieldName="AEBODSYS"
 SignificantDigits="0"
 Origin="Derived"
 Comment="MedDRA 12.0"
 def:Label="Body System or Organ Class">
<CodeListRef CodeListOID="AE.AEDICT"/>
</ItemDef>
<ItemDef 
 OID="AE.AECONTRT"
 Name="AECONTRT"
 DataType="text"
 Length="1"
 SASFieldName="AECONTRT"
 SignificantDigits="0"
 Origin="CRF Page 62"
 Comment="Possible vaues are &quot;Y&quot;, &quot;N&quot; or missing."
 def:Label="Concomitant or Additional Trtmnt Given">
<CodeListRef CodeListOID="AE.AECONTRT.AECONTRT"/>
</ItemDef>
<ItemDef 
 OID="AE.AEDECOD"
 Name="AEDECOD"
 DataType="text"
 Length="200"
 SASFieldName="AEDECOD"
 SignificantDigits="0"
 Origin="Derived"
 Comment="MedDRA 12.0"
 def:Label="Dictionary-Derived Term">
<CodeListRef CodeListOID="AE.AEDICT"/>
</ItemDef>
<ItemDef 
 OID="AE.AEENWK"
 Name="AEENWK"
 DataType="integer"
 Length="8"
 SASFieldName="AEENWK"
 SignificantDigits="0"
 Origin="Derived"
 Comment="AE end week"
 def:Label="End Week of Adverse Event">
</ItemDef>
<ItemDef 
 OID="AE.AEENWKF"
 Name="AEENWKF"
 DataType="text"
 Length="19"
 SASFieldName="AEENWKF"
 SignificantDigits="0"
 Origin="Derived"
 Comment="Assigned to Day or assigned to Month and Day if imputation was used to derive the end week due to partial date information."
 def:Label="Imputation level of AEENWK">
</ItemDef>
<ItemDef 
 OID="AE.AEOUT"
 Name="AEOUT"
 DataType="text"
 Length="50"
 SASFieldName="AEOUT"
 SignificantDigits="0"
 Origin="CRF Page 62"
 Comment="Possible values are :&quot;RECOVERED&quot;,&quot;RECOVERING&quot;,&quot;NOT RECOVERED&quot;,&quot;RECOVERED WITH SEQUELAE&quot;,&quot;FATAL&quot;,&quot;UNKNOWN&quot;,&quot;MISSING DATA&quot;."
 def:Label="Outcome of Adverse Event">
<CodeListRef CodeListOID="AE.AEOUT.AEOUT"/>
</ItemDef>
<ItemDef 
 OID="AE.AEPATT"
 Name="AEPATT"
 DataType="text"
 Length="50"
 SASFieldName="AEPATT"
 SignificantDigits="0"
 Origin="CRF Page 62"
 Comment="Possible values are:&quot;NEW&quot;,&quot;ONGOING WITH CHANGE&quot;,&quot;ONGOING WITHOUT CHANGE&quot;"
 def:Label="Pattern of Adverse Event">
<CodeListRef CodeListOID="AE.AEPATT.AEPATT"/>
</ItemDef>
<ItemDef 
 OID="AE.AEREFID"
 Name="AEREFID"
 DataType="text"
 Length="5"
 SASFieldName="AEREFID"
 SignificantDigits="0"
 Origin="CRF Page 62"
 Comment="Concactenation of the printed page number and the last two digits of the AE ref. number. See Note 4"
 def:Label="Reference ID">
</ItemDef>
<ItemDef 
 OID="AE.AEREL"
 Name="AEREL"
 DataType="text"
 Length="1"
 SASFieldName="AEREL"
 SignificantDigits="0"
 Origin="CRF Page 62"
 Comment="Possible vaues are &quot;Y&quot;, &quot;N&quot; or missing."
 def:Label="Causality">
<CodeListRef CodeListOID="AE.AEREL.AEREL"/>
</ItemDef>
<ItemDef 
 OID="AE.AESCONG"
 Name="AESCONG"
 DataType="text"
 Length="1"
 SASFieldName="AESCONG"
 SignificantDigits="0"
 Origin="CRF Page 62"
 Comment="Possible values are &quot;Y&quot; or blank."
 def:Label="Congenital Anomaly or Birth Defect">
<CodeListRef CodeListOID="AE.AESCONG.AESCONG"/>
</ItemDef>
<ItemDef 
 OID="AE.AESDISAB"
 Name="AESDISAB"
 DataType="text"
 Length="1"
 SASFieldName="AESDISAB"
 SignificantDigits="0"
 Origin="CRF Page 62"
 Comment="Possible values are &quot;Y&quot; or blank."
 def:Label="Persist or Signif Disability/Incapacity">
<CodeListRef CodeListOID="AE.AESDISAB.AESDISAB"/>
</ItemDef>
<ItemDef 
 OID="AE.AESDTH"
 Name="AESDTH"
 DataType="text"
 Length="1"
 SASFieldName="AESDTH"
 SignificantDigits="0"
 Origin="CRF Page 62"
 Comment="Possible values are &quot;Y&quot; or blank."
 def:Label="Results in Death">
<CodeListRef CodeListOID="AE.AESDTH.AESDTH"/>
</ItemDef>
<ItemDef 
 OID="AE.AESEQ"
 Name="AESEQ"
 DataType="integer"
 Length="8"
 SASFieldName="AESEQ"
 SignificantDigits="0"
 Origin="Derived"
 Comment="Derived: a unique incremental sequence number, beginning with 1 and adding 1, for each unique occurrence of a subject, adverse event reported term, visit, adverse event start date and adverse event end date record."
 def:Label="Sequence Number">
</ItemDef>
<ItemDef 
 OID="AE.AESER"
 Name="AESER"
 DataType="text"
 Length="1"
 SASFieldName="AESER"
 SignificantDigits="0"
 Origin="CRF Page 62"
 Comment="Possible vaues are &quot;Y&quot;, &quot;N&quot; or missing."
 def:Label="Serious Event">
<CodeListRef CodeListOID="AE.AESER.AESER"/>
</ItemDef>
<ItemDef 
 OID="AE.AESHOSP"
 Name="AESHOSP"
 DataType="text"
 Length="1"
 SASFieldName="AESHOSP"
 SignificantDigits="0"
 Origin="CRF Page 62"
 Comment="Possible values are &quot;Y&quot; or blank."
 def:Label="Requires or Prolongs Hospitalization">
<CodeListRef CodeListOID="AE.AESHOSP.AESHOSP"/>
</ItemDef>
<ItemDef 
 OID="AE.AESLIFE"
 Name="AESLIFE"
 DataType="text"
 Length="1"
 SASFieldName="AESLIFE"
 SignificantDigits="0"
 Origin="CRF Page 62"
 Comment="Possible values are &quot;Y&quot; or blank."
 def:Label="Is Life Threatening">
<CodeListRef CodeListOID="AE.AESLIFE.AESLIFE"/>
</ItemDef>
<ItemDef 
 OID="AE.AESMIE"
 Name="AESMIE"
 DataType="text"
 Length="1"
 SASFieldName="AESMIE"
 SignificantDigits="0"
 Origin="CRF Page 62"
 Comment="Possible values are &quot;Y&quot; or blank."
 def:Label="Other Medically Important Serious Event">
<CodeListRef CodeListOID="AE.AESMIE.AESMIE"/>
</ItemDef>
<ItemDef 
 OID="AE.AESPID"
 Name="AESPID"
 DataType="text"
 Length="5"
 SASFieldName="AESPID"
 SignificantDigits="0"
 Origin="Derived"
 Comment="1- For records coming from the &quot;Signs &amp; Symptoms present at baseline&quot;, it is the concatenation of the printed page number and the printed Line ID. 2- For records coming from the AE pages, it is the concatenation of the printed page number and the printed AE form number. See Note 3"
 def:Label="Sponsor-Defined Identifier">
</ItemDef>
<ItemDef 
 OID="AE.AESTWK"
 Name="AESTWK"
 DataType="integer"
 Length="8"
 SASFieldName="AESTWK"
 SignificantDigits="0"
 Origin="Derived"
 Comment="AE start week"
 def:Label="Start Week of Adverse Event">
</ItemDef>
<ItemDef 
 OID="AE.AESTWKF"
 Name="AESTWKF"
 DataType="text"
 Length="19"
 SASFieldName="AESTWKF"
 SignificantDigits="0"
 Origin="Derived"
 Comment="Assigned to Day or assigned to Month and Day if imputation was used to derive the start week due to partial date information."
 def:Label="Imputation level of AESTWK">
</ItemDef>
<ItemDef 
 OID="AE.AETERM"
 Name="AETERM"
 DataType="text"
 Length="200"
 SASFieldName="AETERM"
 SignificantDigits="0"
 Origin="CRF Page 34,62"
 Comment=""
 def:Label="Reported Term for the Adverse Event">
</ItemDef>
<ItemDef 
 OID="AE.AETOXGR"
 Name="AETOXGR"
 DataType="text"
 Length="50"
 SASFieldName="AETOXGR"
 SignificantDigits="0"
 Origin="Derived"
 Comment="The CRF allows for Grades 1-4. Fatal outcome AEs with Grade 4 CRF classification were re-classified as Grade 5. Collected grade is in SUPPAE where QNAM=AECOLGR. "
 def:Label="Standard Toxicity Grade">
<CodeListRef CodeListOID="AE.AETOXGR.AETOXGR"/>
</ItemDef>
<ItemDef 
 OID="AE.DOMAIN"
 Name="DOMAIN"
 DataType="text"
 Length="2"
 SASFieldName="DOMAIN"
 SignificantDigits="0"
 Origin="Assigned"
 Comment="Two character code. AE."
 def:Label="Domain Abbreviation">
</ItemDef>
<ItemDef 
 OID="AE.STUDYID"
 Name="STUDYID"
 DataType="text"
 Length="8"
 SASFieldName="STUDYID"
 SignificantDigits="0"
 Origin="Protocol"
 Comment="Unique study identifier with a value of &quot;EFC6193&quot;."
 def:Label="Study Identifier">
</ItemDef>
<ItemDef 
 OID="AE.USUBJID"
 Name="USUBJID"
 DataType="text"
 Length="18"
 SASFieldName="USUBJID"
 SignificantDigits="0"
 Origin="Derived"
 Comment="Subject identification unique across all trials"
 def:Label="Unique Subject Identifier">
</ItemDef>
<ItemDef 
 OID="AE.VISIT"
 Name="VISIT"
 DataType="text"
 Length="50"
 SASFieldName="VISIT"
 SignificantDigits="0"
 Origin="Derived"
 Comment=" See Note 1"
 def:Label="Visit Name">
</ItemDef>
<ItemDef 
 OID="AE.VISITNUM"
 Name="VISITNUM"
 DataType="integer"
 Length="8"
 SASFieldName="VISITNUM"
 SignificantDigits="0"
 Origin="Derived"
 Comment=" See Note 1"
 def:Label="Visit Number">
</ItemDef>
<ItemDef 
 OID="CD.CDCAT"
 Name="CDCAT"
 DataType="text"
 Length="50"
 SASFieldName="CDCAT"
 SignificantDigits="0"
 Origin="CRF Page 13"
 Comment="Valued based on the Primary Tumor Site as collected on the CRF. Always equal to &quot;PROSTATE&quot;."
 def:Label="Category of Cancer Diagnosis">
<CodeListRef CodeListOID="CD.CDCAT.CDCAT"/>
</ItemDef>
<ItemDef 
 OID="CD.CDDTC"
 Name="CDDTC"
 DataType="text"
 Length="19"
 SASFieldName="CDDTC"
 SignificantDigits="0"
 Origin="Derived"
 Comment="Collection date was not in the raw data and therefore this variable is null."
 def:Label="Date/Time of Collection">
</ItemDef>
<ItemDef 
 OID="CD.CDORRES"
 Name="CDORRES"
 DataType="text"
 Length="50"
 SASFieldName="CDORRES"
 SignificantDigits="0"
 Origin="CRF Page 13"
 Comment=""
 def:Label="Cancer Diagn. Crit. Original Result">
</ItemDef>
<ItemDef 
 OID="CD.CDSEQ"
 Name="CDSEQ"
 DataType="integer"
 Length="8"
 SASFieldName="CDSEQ"
 SignificantDigits="0"
 Origin="Derived"
 Comment="Derived: a unique incremental sequence number, beginning with 1 and adding 1, for each unique occurrence of a subject, visit, and initial diagnosis date record."
 def:Label="Sequence Number">
</ItemDef>
<ItemDef 
 OID="CD.CDSTAT"
 Name="CDSTAT"
 DataType="text"
 Length="8"
 SASFieldName="CDSTAT"
 SignificantDigits="0"
 Origin="Derived"
 Comment="If the assessment on the location was made then CDSTAT set to blank; otherwise, CDSTAT = &quot;NOT DONE&quot;."
 def:Label="Completion Status">
<CodeListRef CodeListOID="CD.CDSTAT.CDSTAT"/>
</ItemDef>
<ItemDef 
 OID="CD.CDSTRESC"
 Name="CDSTRESC"
 DataType="text"
 Length="50"
 SASFieldName="CDSTRESC"
 SignificantDigits="0"
 Origin="Derived"
 Comment="Set equal to CDORRES."
 def:Label="Cancer Diagn. Crit. Result in Std Format">
</ItemDef>
<ItemDef 
 OID="CD.CDTEST"
 Name="CDTEST"
 DataType="text"
 Length="40"
 SASFieldName="CDTEST"
 SignificantDigits="0"
 Origin="Derived"
 Comment="Question name of the cancer diagnosis assessment/finding. See the codelist for CDTESTCD for possible values."
 def:Label="Cancer Diagnosis Criterion">
</ItemDef>
<ItemDef 
 OID="CD.CDTESTCD"
 Name="CDTESTCD"
 DataType="text"
 Length="8"
 SASFieldName="CDTESTCD"
 SignificantDigits="0"
 Origin="Derived"
 Comment="Short name for question name of the cancer diagnosis assessment/finding."
 def:Label="Cancer Diagnosis Criterion Short Name">
<CodeListRef CodeListOID="CD.CDTESTCD.CDTEST"/>
</ItemDef>
<ItemDef 
 OID="CD.DOMAIN"
 Name="DOMAIN"
 DataType="text"
 Length="2"
 SASFieldName="DOMAIN"
 SignificantDigits="0"
 Origin="Assigned"
 Comment="Two character code. CD."
 def:Label="Domain Abbreviation">
</ItemDef>
<ItemDef 
 OID="CD.STUDYID"
 Name="STUDYID"
 DataType="text"
 Length="8"
 SASFieldName="STUDYID"
 SignificantDigits="0"
 Origin="Protocol"
 Comment="Unique study identifier with a value of &quot;EFC6193&quot;."
 def:Label="Study Identifier">
</ItemDef>
<ItemDef 
 OID="CD.USUBJID"
 Name="USUBJID"
 DataType="text"
 Length="18"
 SASFieldName="USUBJID"
 SignificantDigits="0"
 Origin="Derived"
 Comment="Subject identification unique across all trials"
 def:Label="Unique Subject Identifier">
</ItemDef>
<ItemDef 
 OID="CD.VISIT"
 Name="VISIT"
 DataType="text"
 Length="50"
 SASFieldName="VISIT"
 SignificantDigits="0"
 Origin="Derived"
 Comment=" See Note 1"
 def:Label="Visit Name">
</ItemDef>
<ItemDef 
 OID="CD.VISITNUM"
 Name="VISITNUM"
 DataType="integer"
 Length="8"
 SASFieldName="VISITNUM"
 SignificantDigits="0"
 Origin="Derived"
 Comment=" See Note 1"
 def:Label="Visit Number">
</ItemDef>
<ItemDef 
 OID="CM.CMCAT"
 Name="CMCAT"
 DataType="text"
 Length="200"
 SASFieldName="CMCAT"
 SignificantDigits="0"
 Origin="Derived"
 Comment="Category of medication. See codelist for possible values. See Note 11"
 def:Label="Category for Medication">
<CodeListRef CodeListOID="CM.CMCAT.CMCAT"/>
</ItemDef>
<ItemDef 
 OID="CM.CMDECOD"
 Name="CMDECOD"
 DataType="text"
 Length="200"
 SASFieldName="CMDECOD"
 SignificantDigits="0"
 Origin="Derived"
 Comment="Dictionary-derived character description of CMTRT. Equivalent to the generic medication name in WHO Drug."
 def:Label="Standardized Medication Name">
<CodeListRef CodeListOID="CM.CMDICT"/>
</ItemDef>
<ItemDef 
 OID="CM.CMDOSE"
 Name="CMDOSE"
 DataType="float"
 Length="8"
 SASFieldName="CMDOSE"
 SignificantDigits="3"
 Origin="CRF Page 16,20,48"
 Comment=""
 def:Label="Dose per Administration">
</ItemDef>
<ItemDef 
 OID="CM.CMDOSRGM"
 Name="CMDOSRGM"
 DataType="text"
 Length="20"
 SASFieldName="CMDOSRGM"
 SignificantDigits="0"
 Origin="CRF Page 16"
 Comment=""
 def:Label="Intended Dose Regimen">
</ItemDef>
<ItemDef 
 OID="CM.CMDOSU"
 Name="CMDOSU"
 DataType="text"
 Length="15"
 SASFieldName="CMDOSU"
 SignificantDigits="0"
 Origin="CRF Page 16,20,48"
 Comment=""
 def:Label="Dose Units">
</ItemDef>
<ItemDef 
 OID="CM.CMENDTC"
 Name="CMENDTC"
 DataType="text"
 Length="19"
 SASFieldName="CMENDTC"
 SignificantDigits="0"
 Origin="CRF Page 16,20,37,48,60,279"
 Comment="End Date of Medication (ISO 8601 format). For values that are less than CMSTDTC the value is set to null and the collected value is in SUPPCM where QNAM=&quot;ENDTCOL&quot;."
 def:Label="End Date/Time of Medication">
</ItemDef>
<ItemDef 
 OID="CM.CMENDY"
 Name="CMENDY"
 DataType="integer"
 Length="8"
 SASFieldName="CMENDY"
 SignificantDigits="0"
 Origin="Derived"
 Comment="Derived from concomitant medication end date and reference start date. Calculated as (date part of CMENDTC - DM.RFSTDT) + 1, if the end date of medication is on or after the reference start date. Otherwise, if the end date of medication is prior to the reference start date, then calculated as (date part of CMENDTC - DM.RFSTDT).  See Note 2"
 def:Label="Study Day of End of Medication">
</ItemDef>
<ItemDef 
 OID="CM.CMINDC"
 Name="CMINDC"
 DataType="text"
 Length="200"
 SASFieldName="CMINDC"
 SignificantDigits="0"
 Origin="CRF Page 16,20"
 Comment=""
 def:Label="Indication">
</ItemDef>
<ItemDef 
 OID="CM.CMSEQ"
 Name="CMSEQ"
 DataType="integer"
 Length="8"
 SASFieldName="CMSEQ"
 SignificantDigits="0"
 Origin="Derived"
 Comment="Derived: a unique incremental sequence number, beginning with 1 and adding 1, for each unique occurrence of a subject, visit, drug, start date of concomitant medication and end date of concomitant medication record."
 def:Label="Sequence Number">
</ItemDef>
<ItemDef 
 OID="CM.CMSTDTC"
 Name="CMSTDTC"
 DataType="text"
 Length="19"
 SASFieldName="CMSTDTC"
 SignificantDigits="0"
 Origin="CRF Page 16,20,37,48,60,279"
 Comment="Start Date of Medication (ISO 8601 format)."
 def:Label="Start Date/Time of Medication">
</ItemDef>
<ItemDef 
 OID="CM.CMSTDY"
 Name="CMSTDY"
 DataType="integer"
 Length="8"
 SASFieldName="CMSTDY"
 SignificantDigits="0"
 Origin="Derived"
 Comment="Derived from concomitant medication start date and reference start date. Calculated as (date part of CMSTDTC - DM.RFSTDT) + 1, if the start date of medication is on or after the reference start date. Otherwise, if the start date of medication is prior to the reference start date, then calculated as (date part of CMSTDTC - DM.RFSTDT).  See Note 2"
 def:Label="Study Day of Start of Medication">
</ItemDef>
<ItemDef 
 OID="CM.CMTRT"
 Name="CMTRT"
 DataType="text"
 Length="200"
 SASFieldName="CMTRT"
 SignificantDigits="0"
 Origin="CRF Page 16,37,48,60,279"
 Comment="Taken from the CRF page apart from prior radiation therapy where the value is set to &quot;RADIOTHERAPY&quot;."
 def:Label="Reported Name of Drug, Med, or Therapy">
</ItemDef>
<ItemDef 
 OID="CM.DOMAIN"
 Name="DOMAIN"
 DataType="text"
 Length="2"
 SASFieldName="DOMAIN"
 SignificantDigits="0"
 Origin="Assigned"
 Comment="Two character code. CM."
 def:Label="Domain Abbreviation">
</ItemDef>
<ItemDef 
 OID="CM.STUDYID"
 Name="STUDYID"
 DataType="text"
 Length="8"
 SASFieldName="STUDYID"
 SignificantDigits="0"
 Origin="Protocol"
 Comment="Unique study identifier with a value of &quot;EFC6193&quot;."
 def:Label="Study Identifier">
</ItemDef>
<ItemDef 
 OID="CM.USUBJID"
 Name="USUBJID"
 DataType="text"
 Length="18"
 SASFieldName="USUBJID"
 SignificantDigits="0"
 Origin="Derived"
 Comment="Subject identification unique across all trials"
 def:Label="Unique Subject Identifier">
</ItemDef>
<ItemDef 
 OID="CM.VISIT"
 Name="VISIT"
 DataType="text"
 Length="50"
 SASFieldName="VISIT"
 SignificantDigits="0"
 Origin="Derived"
 Comment=" See Note 1"
 def:Label="Visit Name">
</ItemDef>
<ItemDef 
 OID="CM.VISITNUM"
 Name="VISITNUM"
 DataType="integer"
 Length="8"
 SASFieldName="VISITNUM"
 SignificantDigits="0"
 Origin="Derived"
 Comment=" See Note 1"
 def:Label="Visit Number">
</ItemDef>
<ItemDef 
 OID="CX.CXBLFL"
 Name="CXBLFL"
 DataType="text"
 Length="1"
 SASFieldName="CXBLFL"
 SignificantDigits="0"
 Origin="Derived"
 Comment="All null, no baseline was derived."
 def:Label="Baseline Flag">
</ItemDef>
<ItemDef 
 OID="CX.CXCAT"
 Name="CXCAT"
 DataType="text"
 Length="50"
 SASFieldName="CXCAT"
 SignificantDigits="0"
 Origin="Derived"
 Comment="Category used to group examinations into &quot;RADIONUCLIDE VENTRICULOGRAPHY&quot; or &quot;ECHOCARDIOGRAPHY&quot;."
 def:Label="Category for Test">
<CodeListRef CodeListOID="CX.CXCAT.CXCAT"/>
</ItemDef>
<ItemDef 
 OID="CX.CXDTC"
 Name="CXDTC"
 DataType="text"
 Length="19"
 SASFieldName="CXDTC"
 SignificantDigits="0"
 Origin="CRF Page 29"
 Comment="Assessment date (ISO 8601 format)."
 def:Label="Date/Time Performed">
</ItemDef>
<ItemDef 
 OID="CX.CXMETHOD"
 Name="CXMETHOD"
 DataType="text"
 Length="50"
 SASFieldName="CXMETHOD"
 SignificantDigits="0"
 Origin="CRF Page 29"
 Comment="Possible values are &quot;RADIONUCLIDE VENTRICULOGRAPHY&quot; or &quot;2-D ECHOCARDIOGRAPHY&quot;."
 def:Label="Method of Clinical Examination">
<CodeListRef CodeListOID="CX.CXMETHOD.CXMETHOD"/>
</ItemDef>
<ItemDef 
 OID="CX.CXORNRLO"
 Name="CXORNRLO"
 DataType="text"
 Length="20"
 SASFieldName="CXORNRLO"
 SignificantDigits="0"
 Origin="CRF Page 29"
 Comment=""
 def:Label="Reference Range Lower Limit in Orig Unit">
</ItemDef>
<ItemDef 
 OID="CX.CXORRES"
 Name="CXORRES"
 DataType="text"
 Length="20"
 SASFieldName="CXORRES"
 SignificantDigits="0"
 Origin="CRF Page 29"
 Comment="If CXTESTCD is equal to &quot;CARDEX&quot; then the result is limited to &quot;NORMAL&quot; or &quot;ABNORMAL&quot;."
 def:Label="Result or Finding in Original Units">
</ItemDef>
<ItemDef 
 OID="CX.CXORRESU"
 Name="CXORRESU"
 DataType="text"
 Length="20"
 SASFieldName="CXORRESU"
 SignificantDigits="0"
 Origin="CRF Page 29"
 Comment=""
 def:Label="Original Units">
</ItemDef>
<ItemDef 
 OID="CX.CXSEQ"
 Name="CXSEQ"
 DataType="integer"
 Length="8"
 SASFieldName="CXSEQ"
 SignificantDigits="0"
 Origin="Derived"
 Comment="Within the same USUBJID assign a unique sequential number to ensure uniqueness within a dataset for a subject beginning with 1 and adding 1 to each record. Can be used to join related records. "
 def:Label="Sequence Number">
</ItemDef>
<ItemDef 
 OID="CX.CXSTAT"
 Name="CXSTAT"
 DataType="text"
 Length="8"
 SASFieldName="CXSTAT"
 SignificantDigits="0"
 Origin="CRF Page 29"
 Comment=""
 def:Label="Clinical Examination Status">
<CodeListRef CodeListOID="CX.CXSTAT.CXSTAT"/>
</ItemDef>
<ItemDef 
 OID="CX.CXSTNRLO"
 Name="CXSTNRLO"
 DataType="float"
 Length="8"
 SASFieldName="CXSTNRLO"
 SignificantDigits="2"
 Origin="Derived"
 Comment="Set equal to CXORNRLO as numeric representation."
 def:Label="Reference Range Lower Limit-Std Units">
</ItemDef>
<ItemDef 
 OID="CX.CXSTRESC"
 Name="CXSTRESC"
 DataType="text"
 Length="20"
 SASFieldName="CXSTRESC"
 SignificantDigits="0"
 Origin="Derived"
 Comment="Set equal to CXORRES."
 def:Label="Character Result/Finding in Std Format">
</ItemDef>
<ItemDef 
 OID="CX.CXSTRESN"
 Name="CXSTRESN"
 DataType="float"
 Length="8"
 SASFieldName="CXSTRESN"
 SignificantDigits="2"
 Origin="Derived"
 Comment="Numeric representation of CXSTRESC for applicable result values."
 def:Label="Numeric Result/Finding in Std Units">
</ItemDef>
<ItemDef 
 OID="CX.CXSTRESU"
 Name="CXSTRESU"
 DataType="text"
 Length="20"
 SASFieldName="CXSTRESU"
 SignificantDigits="0"
 Origin="Derived"
 Comment="Set equal to CXORNRLO."
 def:Label="Standard Units">
</ItemDef>
<ItemDef 
 OID="CX.CXTEST"
 Name="CXTEST"
 DataType="text"
 Length="40"
 SASFieldName="CXTEST"
 SignificantDigits="0"
 Origin="Derived"
 Comment="Verbatim name of the examination. Possible values are &quot;CARDIAC EXAMINATION&quot; or &quot;LEFT VENTRICULAR EJECTION FRACTION&quot;. "
 def:Label="Test Name">
</ItemDef>
<ItemDef 
 OID="CX.CXTESTCD"
 Name="CXTESTCD"
 DataType="text"
 Length="8"
 SASFieldName="CXTESTCD"
 SignificantDigits="0"
 Origin="Derived"
 Comment="Short version of CXTEST."
 def:Label="Test Short Name">
<CodeListRef CodeListOID="CX.CXTESTCD.CXTEST"/>
</ItemDef>
<ItemDef 
 OID="CX.DOMAIN"
 Name="DOMAIN"
 DataType="text"
 Length="2"
 SASFieldName="DOMAIN"
 SignificantDigits="0"
 Origin="Assigned"
 Comment="Two character code. CX."
 def:Label="Domain Abbreviation">
</ItemDef>
<ItemDef 
 OID="CX.STUDYID"
 Name="STUDYID"
 DataType="text"
 Length="8"
 SASFieldName="STUDYID"
 SignificantDigits="0"
 Origin="Protocol"
 Comment="Unique study identifier with a value of &quot;EFC6193&quot;."
 def:Label="Study Identifier">
</ItemDef>
<ItemDef 
 OID="CX.USUBJID"
 Name="USUBJID"
 DataType="text"
 Length="18"
 SASFieldName="USUBJID"
 SignificantDigits="0"
 Origin="Derived"
 Comment="Subject identification unique across all trials"
 def:Label="Unique Subject Identifier">
</ItemDef>
<ItemDef 
 OID="CX.VISIT"
 Name="VISIT"
 DataType="text"
 Length="50"
 SASFieldName="VISIT"
 SignificantDigits="0"
 Origin="Derived"
 Comment=" See Note 1"
 def:Label="Visit Name">
</ItemDef>
<ItemDef 
 OID="CX.VISITNUM"
 Name="VISITNUM"
 DataType="integer"
 Length="8"
 SASFieldName="VISITNUM"
 SignificantDigits="0"
 Origin="Derived"
 Comment=" See Note 1"
 def:Label="Visit Number">
</ItemDef>
<ItemDef 
 OID="DM.AGEGRP"
 Name="AGEGRP"
 DataType="text"
 Length="50"
 SASFieldName="AGEGRP"
 SignificantDigits="0"
 Origin="Derived"
 Comment="Derived as the integer of (consent date - date of birth) / 365.25 or assigned to >85 for subjects older than 85"
 def:Label="Age Group">
</ItemDef>
<ItemDef 
 OID="DM.AGEU"
 Name="AGEU"
 DataType="text"
 Length="6"
 SASFieldName="AGEU"
 SignificantDigits="0"
 Origin="Derived"
 Comment="Derived with a value of &quot;YEARS&quot;."
 def:Label="Age Units">
</ItemDef>
<ItemDef 
 OID="DM.ARM"
 Name="ARM"
 DataType="text"
 Length="200"
 SASFieldName="ARM"
 SignificantDigits="0"
 Origin="Derived"
 Comment="Planned treatment arm. Possible values are: &quot;MITOXANTRONE/PREDNISONE&quot;,&quot;XRP6258/PREDNISONE&quot;,&quot;SCREEN FAILURE&quot;,&quot;NOT ASSIGNED&quot;. If a subject was randomized but never treated, the value is &quot;SCREEN FAILURE&quot; and the planned arm is in SUPPDM.QNAM=&quot;ARM2. This is to comply with SDTM IG 3.1.1.  See Note 9"
 def:Label="Description of Planned Arm">
</ItemDef>
<ItemDef 
 OID="DM.ARMCD"
 Name="ARMCD"
 DataType="text"
 Length="50"
 SASFieldName="ARMCD"
 SignificantDigits="0"
 Origin="Derived"
 Comment="Coded value of ARM. Possible values are: &quot;A&quot;, &quot;B&quot;, &quot;SCRNFAIL&quot;, &quot;NOTASSGN&quot;. If a subject was randomized but never treated, the value is &quot;SCRNFAIL&quot; and the planned arm code is in SUPPDM.QNAM=ARMCD2. This is to comply with SDTM IG 3.1.1.  See Note 9"
 def:Label="Planned Arm Code">
<CodeListRef CodeListOID="DM.ARMCD.ARM"/>
</ItemDef>
<ItemDef 
 OID="DM.DOMAIN"
 Name="DOMAIN"
 DataType="text"
 Length="2"
 SASFieldName="DOMAIN"
 SignificantDigits="0"
 Origin="Assigned"
 Comment="Two character code. DM."
 def:Label="Domain Abbreviation">
</ItemDef>
<ItemDef 
 OID="DM.RACE"
 Name="RACE"
 DataType="text"
 Length="50"
 SASFieldName="RACE"
 SignificantDigits="0"
 Origin="CRF Page 12"
 Comment="Possible values are:WHITE, BLACK OR AFRICAN AMERICAN, ASIAN, OTHER."
 def:Label="Race">
<CodeListRef CodeListOID="DM.RACE.RACE"/>
</ItemDef>
<ItemDef 
 OID="DM.RFENDTC"
 Name="RFENDTC"
 DataType="text"
 Length="19"
 SASFieldName="RFENDTC"
 SignificantDigits="0"
 Origin="Derived"
 Comment="Subject reference end date/time in ISO 8601 format."
 def:Label="Subject Reference End Date/Time">
</ItemDef>
<ItemDef 
 OID="DM.RFSTDTC"
 Name="RFSTDTC"
 DataType="text"
 Length="19"
 SASFieldName="RFSTDTC"
 SignificantDigits="0"
 Origin="Derived"
 Comment="Subject reference start date/time in ISO 8601 format."
 def:Label="Subject Reference Start Date/Time">
</ItemDef>
<ItemDef 
 OID="DM.SEX"
 Name="SEX"
 DataType="text"
 Length="1"
 SASFieldName="SEX"
 SignificantDigits="0"
 Origin="CRF Page 12"
 Comment="1: Male, 2: Female"
 def:Label="Sex">
<CodeListRef CodeListOID="DM.SEX.SEX"/>
</ItemDef>
<ItemDef 
 OID="DM.STUDYID"
 Name="STUDYID"
 DataType="text"
 Length="8"
 SASFieldName="STUDYID"
 SignificantDigits="0"
 Origin="Protocol"
 Comment="Unique study identifier with a value of &quot;EFC6193&quot;."
 def:Label="Study Identifier">
</ItemDef>
<ItemDef 
 OID="DM.SUBJID"
 Name="SUBJID"
 DataType="text"
 Length="9"
 SASFieldName="SUBJID"
 SignificantDigits="0"
 Origin="Derived"
 Comment="Subject identifier used within the study"
 def:Label="Subject Identifier for the Study">
</ItemDef>
<ItemDef 
 OID="DM.USUBJID"
 Name="USUBJID"
 DataType="text"
 Length="18"
 SASFieldName="USUBJID"
 SignificantDigits="0"
 Origin="Derived"
 Comment="Subject identification unique across all trials"
 def:Label="Unique Subject Identifier">
</ItemDef>
<ItemDef 
 OID="DS.DOMAIN"
 Name="DOMAIN"
 DataType="text"
 Length="2"
 SASFieldName="DOMAIN"
 SignificantDigits="0"
 Origin="Assigned"
 Comment="Two character code. DS."
 def:Label="Domain Abbreviation">
</ItemDef>
<ItemDef 
 OID="DS.DSCAT"
 Name="DSCAT"
 DataType="text"
 Length="50"
 SASFieldName="DSCAT"
 SignificantDigits="0"
 Origin="Derived"
 Comment=" See Note 8"
 def:Label="Category for Disposition Event">
<CodeListRef CodeListOID="DS.DSCAT.DSCAT"/>
</ItemDef>
<ItemDef 
 OID="DS.DSDECOD"
 Name="DSDECOD"
 DataType="text"
 Length="200"
 SASFieldName="DSDECOD"
 SignificantDigits="0"
 Origin="Derived"
 Comment=" See Note 8"
 def:Label="Standardized Disposition Term">
</ItemDef>
<ItemDef 
 OID="DS.DSSCAT"
 Name="DSSCAT"
 DataType="text"
 Length="50"
 SASFieldName="DSSCAT"
 SignificantDigits="0"
 Origin="Derived"
 Comment=" See Note 8"
 def:Label="Subcategory for Disposition Event">
<CodeListRef CodeListOID="DS.DSSCAT.DSSCAT"/>
</ItemDef>
<ItemDef 
 OID="DS.DSSEQ"
 Name="DSSEQ"
 DataType="integer"
 Length="8"
 SASFieldName="DSSEQ"
 SignificantDigits="0"
 Origin="Derived"
 Comment="Derived: a unique incremental sequence number, beginning with 1 and adding 1, for each unique occurrence of a subject, visit, and end date of study."
 def:Label="Sequence Number">
</ItemDef>
<ItemDef 
 OID="DS.DSSTWK"
 Name="DSSTWK"
 DataType="integer"
 Length="8"
 SASFieldName="DSSTWK"
 SignificantDigits="0"
 Origin="Derived"
 Comment="Disposition event start week"
 def:Label="Start Week of Disposition Event">
</ItemDef>
<ItemDef 
 OID="DS.DSSTWKF"
 Name="DSSTWKF"
 DataType="text"
 Length="19"
 SASFieldName="DSSTWKF"
 SignificantDigits="0"
 Origin="Derived"
 Comment="Assigned to Day or assigned to Month and Day if imputation was used to derive the start week due to partial date information."
 def:Label="Imputation level of DSSTWK">
</ItemDef>
<ItemDef 
 OID="DS.DSTERM"
 Name="DSTERM"
 DataType="text"
 Length="200"
 SASFieldName="DSTERM"
 SignificantDigits="0"
 Origin="CRF Page 267,278,474,525"
 Comment=""
 def:Label="Reported Term for the Disposition Event">
</ItemDef>
<ItemDef 
 OID="DS.EPOCH"
 Name="EPOCH"
 DataType="text"
 Length="20"
 SASFieldName="EPOCH"
 SignificantDigits="0"
 Origin="Derived"
 Comment="Set equal to &apos;TREATMENT PHASE&apos; when DSSCAT equals  &apos;END OF TREATMENT&apos;;  Set equal to &apos;FOLLOW-UP PHASE&apos; when DSSCAT equals  &apos;END OF STUDY&apos;."
 def:Label="Trial Epoch">
</ItemDef>
<ItemDef 
 OID="DS.STUDYID"
 Name="STUDYID"
 DataType="text"
 Length="8"
 SASFieldName="STUDYID"
 SignificantDigits="0"
 Origin="Protocol"
 Comment="Unique study identifier with a value of &quot;EFC6193&quot;."
 def:Label="Study Identifier">
</ItemDef>
<ItemDef 
 OID="DS.USUBJID"
 Name="USUBJID"
 DataType="text"
 Length="18"
 SASFieldName="USUBJID"
 SignificantDigits="0"
 Origin="Derived"
 Comment="Subject identification unique across all trials"
 def:Label="Unique Subject Identifier">
</ItemDef>
<ItemDef 
 OID="DS.VISIT"
 Name="VISIT"
 DataType="text"
 Length="50"
 SASFieldName="VISIT"
 SignificantDigits="0"
 Origin="Derived"
 Comment=" See Note 1"
 def:Label="Visit Name">
</ItemDef>
<ItemDef 
 OID="DS.VISITNUM"
 Name="VISITNUM"
 DataType="integer"
 Length="8"
 SASFieldName="VISITNUM"
 SignificantDigits="0"
 Origin="Derived"
 Comment=" See Note 1"
 def:Label="Visit Number">
</ItemDef>
<ItemDef 
 OID="EG.DOMAIN"
 Name="DOMAIN"
 DataType="text"
 Length="2"
 SASFieldName="DOMAIN"
 SignificantDigits="0"
 Origin="Assigned"
 Comment="Two character code. EG."
 def:Label="Domain Abbreviation">
</ItemDef>
<ItemDef 
 OID="EG.EGBLFL"
 Name="EGBLFL"
 DataType="text"
 Length="1"
 SASFieldName="EGBLFL"
 SignificantDigits="0"
 Origin="Derived"
 Comment="Baseline flag not derived, set to null."
 def:Label="Baseline Flag">
</ItemDef>
<ItemDef 
 OID="EG.EGDTC"
 Name="EGDTC"
 DataType="text"
 Length="19"
 SASFieldName="EGDTC"
 SignificantDigits="0"
 Origin="CRF Page 28"
 Comment="Assessment date (ISO 8601 format)."
 def:Label="Date/Time of ECG">
</ItemDef>
<ItemDef 
 OID="EG.EGDY"
 Name="EGDY"
 DataType="integer"
 Length="8"
 SASFieldName="EGDY"
 SignificantDigits="0"
 Origin="Derived"
 Comment="Derived from ECG measurement date and reference start date. Calculated as (date part of EGDTC - DM.RFSTDT) + 1, if the ECG measurement is on or after the reference start date. Otherwise, if the date of measurement is prior to the reference start date, then calculated as (date part of EGDTC - DM.RFSTDT).  See Note 2"
 def:Label="Study day of ECG">
</ItemDef>
<ItemDef 
 OID="EG.EGEVAL"
 Name="EGEVAL"
 DataType="text"
 Length="100"
 SASFieldName="EGEVAL"
 SignificantDigits="0"
 Origin="Derived"
 Comment="Evaluator not applicable, set to null."
 def:Label="Evaluator">
</ItemDef>
<ItemDef 
 OID="EG.EGORRES"
 Name="EGORRES"
 DataType="text"
 Length="20"
 SASFieldName="EGORRES"
 SignificantDigits="0"
 Origin="CRF Page 28"
 Comment=""
 def:Label="Result or Finding in Original Units">
</ItemDef>
<ItemDef 
 OID="EG.EGSEQ"
 Name="EGSEQ"
 DataType="integer"
 Length="8"
 SASFieldName="EGSEQ"
 SignificantDigits="0"
 Origin="Derived"
 Comment="Derived: a unique incremental sequence number, beginning with 1 and adding 1, for each unique occurrence of a subject and visit."
 def:Label="Sequence Number">
</ItemDef>
<ItemDef 
 OID="EG.EGSTRESC"
 Name="EGSTRESC"
 DataType="text"
 Length="200"
 SASFieldName="EGSTRESC"
 SignificantDigits="0"
 Origin="Derived"
 Comment="Set equal to EGORRES."
 def:Label="Character Result/Finding in Std Format">
</ItemDef>
<ItemDef 
 OID="EG.EGTEST"
 Name="EGTEST"
 DataType="text"
 Length="40"
 SASFieldName="EGTEST"
 SignificantDigits="0"
 Origin="Derived"
 Comment="Set equal to &apos;ECG&apos;."
 def:Label="ECG Test or Examination Name">
</ItemDef>
<ItemDef 
 OID="EG.EGTESTCD"
 Name="EGTESTCD"
 DataType="text"
 Length="8"
 SASFieldName="EGTESTCD"
 SignificantDigits="0"
 Origin="Derived"
 Comment="Set equal to &apos;ECG&apos;."
 def:Label="ECG Test or Examination Short Name">
<CodeListRef CodeListOID="EG.EGTESTCD.EGTEST"/>
</ItemDef>
<ItemDef 
 OID="EG.STUDYID"
 Name="STUDYID"
 DataType="text"
 Length="8"
 SASFieldName="STUDYID"
 SignificantDigits="0"
 Origin="Protocol"
 Comment="Unique study identifier with a value of &quot;EFC6193&quot;."
 def:Label="Study Identifier">
</ItemDef>
<ItemDef 
 OID="EG.USUBJID"
 Name="USUBJID"
 DataType="text"
 Length="18"
 SASFieldName="USUBJID"
 SignificantDigits="0"
 Origin="Derived"
 Comment="Subject identification unique across all trials"
 def:Label="Unique Subject Identifier">
</ItemDef>
<ItemDef 
 OID="EG.VISIT"
 Name="VISIT"
 DataType="text"
 Length="50"
 SASFieldName="VISIT"
 SignificantDigits="0"
 Origin="Derived"
 Comment=" See Note 1"
 def:Label="Visit Name">
</ItemDef>
<ItemDef 
 OID="EG.VISITNUM"
 Name="VISITNUM"
 DataType="integer"
 Length="8"
 SASFieldName="VISITNUM"
 SignificantDigits="0"
 Origin="Derived"
 Comment=" See Note 1"
 def:Label="Visit Number">
</ItemDef>
<ItemDef 
 OID="EX.DOMAIN"
 Name="DOMAIN"
 DataType="text"
 Length="2"
 SASFieldName="DOMAIN"
 SignificantDigits="0"
 Origin="Assigned"
 Comment="Two character code. EX."
 def:Label="Domain Abbreviation">
</ItemDef>
<ItemDef 
 OID="EX.EXDOSE"
 Name="EXDOSE"
 DataType="float"
 Length="8"
 SASFieldName="EXDOSE"
 SignificantDigits="2"
 Origin="CRF Page 49"
 Comment=""
 def:Label="Dose per Administration">
</ItemDef>
<ItemDef 
 OID="EX.EXDOSFRM"
 Name="EXDOSFRM"
 DataType="text"
 Length="20"
 SASFieldName="EXDOSFRM"
 SignificantDigits="0"
 Origin="Derived"
 Comment="Set equal to &apos;INJECTION&apos; or &apos;TABLET&apos;."
 def:Label="Dose Form">
</ItemDef>
<ItemDef 
 OID="EX.EXDOSU"
 Name="EXDOSU"
 DataType="text"
 Length="15"
 SASFieldName="EXDOSU"
 SignificantDigits="0"
 Origin="Derived"
 Comment="Set equal to &apos;mg&apos;."
 def:Label="Dose Units">
</ItemDef>
<ItemDef 
 OID="EX.EXENDTC"
 Name="EXENDTC"
 DataType="text"
 Length="19"
 SASFieldName="EXENDTC"
 SignificantDigits="0"
 Origin="CRF Page 49"
 Comment="Treatment end date/time in ISO 8601 format. For values that are less than EXSTDTC the value is set to null and the collected value is in SUPPEX where QNAM=&quot;ENDTCOL&quot;."
 def:Label="End Date/Time of Treatment">
</ItemDef>
<ItemDef 
 OID="EX.EXLOT"
 Name="EXLOT"
 DataType="text"
 Length="40"
 SASFieldName="EXLOT"
 SignificantDigits="0"
 Origin="CRF Page 51"
 Comment=""
 def:Label="Lot Number">
</ItemDef>
<ItemDef 
 OID="EX.EXROUTE"
 Name="EXROUTE"
 DataType="text"
 Length="20"
 SASFieldName="EXROUTE"
 SignificantDigits="0"
 Origin="Derived"
 Comment="Assigned value of &apos;INTRAVENOUS&apos; or &apos;ORAL&apos;."
 def:Label="Route of Administration">
</ItemDef>
<ItemDef 
 OID="EX.EXSEQ"
 Name="EXSEQ"
 DataType="integer"
 Length="8"
 SASFieldName="EXSEQ"
 SignificantDigits="0"
 Origin="Derived"
 Comment="Derived: a unique incremental sequence number, beginning with 1 and adding 1, for each unique occurrence of a subject, visit and start date of study treatment record."
 def:Label="Sequence Number">
</ItemDef>
<ItemDef 
 OID="EX.EXSTDTC"
 Name="EXSTDTC"
 DataType="text"
 Length="19"
 SASFieldName="EXSTDTC"
 SignificantDigits="0"
 Origin="CRF Page 49"
 Comment="Treatment start date/time in ISO8601 format."
 def:Label="Start Date/Time of Treatment">
</ItemDef>
<ItemDef 
 OID="EX.EXSTDY"
 Name="EXSTDY"
 DataType="integer"
 Length="8"
 SASFieldName="EXSTDY"
 SignificantDigits="0"
 Origin="Derived"
 Comment="Derived from study treatment start date and reference start date. Calculated as (date part of EXSTDTC - DM.RFSTDT) + 1, if the start date of study treatment is on or after the reference start date. Otherwise, if the start date of study treatment is prior to the reference start date, then calculated as (date part of EXSTDTC - DM.RFSTDT). See Note 2"
 def:Label="Study Day of Start of Treatment">
</ItemDef>
<ItemDef 
 OID="EX.EXTRT"
 Name="EXTRT"
 DataType="text"
 Length="200"
 SASFieldName="EXTRT"
 SignificantDigits="0"
 Origin="CRF Page 49,51"
 Comment=""
 def:Label="Name of Actual Treatment">
</ItemDef>
<ItemDef 
 OID="EX.STUDYID"
 Name="STUDYID"
 DataType="text"
 Length="8"
 SASFieldName="STUDYID"
 SignificantDigits="0"
 Origin="Protocol"
 Comment="Unique study identifier with a value of &quot;EFC6193&quot;."
 def:Label="Study Identifier">
</ItemDef>
<ItemDef 
 OID="EX.USUBJID"
 Name="USUBJID"
 DataType="text"
 Length="18"
 SASFieldName="USUBJID"
 SignificantDigits="0"
 Origin="Derived"
 Comment="Subject identification unique across all trials"
 def:Label="Unique Subject Identifier">
</ItemDef>
<ItemDef 
 OID="EX.VISIT"
 Name="VISIT"
 DataType="text"
 Length="50"
 SASFieldName="VISIT"
 SignificantDigits="0"
 Origin="Derived"
 Comment=" See Note 1"
 def:Label="Visit Name">
</ItemDef>
<ItemDef 
 OID="EX.VISITNUM"
 Name="VISITNUM"
 DataType="integer"
 Length="8"
 SASFieldName="VISITNUM"
 SignificantDigits="0"
 Origin="Derived"
 Comment=" See Note 1"
 def:Label="Visit Number">
</ItemDef>
<ItemDef 
 OID="IE.DOMAIN"
 Name="DOMAIN"
 DataType="text"
 Length="2"
 SASFieldName="DOMAIN"
 SignificantDigits="0"
 Origin="Assigned"
 Comment="Two character code. IE."
 def:Label="Domain Abbreviation">
</ItemDef>
<ItemDef 
 OID="IE.IECAT"
 Name="IECAT"
 DataType="text"
 Length="50"
 SASFieldName="IECAT"
 SignificantDigits="0"
 Origin="Derived"
 Comment="Defines category of related records."
 def:Label="Inclusion/Exclusion Category">
<CodeListRef CodeListOID="IE.IECAT.IECAT"/>
</ItemDef>
<ItemDef 
 OID="IE.IEORRES"
 Name="IEORRES"
 DataType="text"
 Length="1"
 SASFieldName="IEORRES"
 SignificantDigits="0"
 Origin="CRF Page 39,40,41,42"
 Comment=""
 def:Label="I/E Criterion Original Result">
</ItemDef>
<ItemDef 
 OID="IE.IESEQ"
 Name="IESEQ"
 DataType="integer"
 Length="8"
 SASFieldName="IESEQ"
 SignificantDigits="0"
 Origin="Derived"
 Comment="Derived: a unique incremental sequence number, beginning with 1 and adding 1, for each unique occurrence of a subject."
 def:Label="Sequence Number">
</ItemDef>
<ItemDef 
 OID="IE.IESPID"
 Name="IESPID"
 DataType="text"
 Length="10"
 SASFieldName="IESPID"
 SignificantDigits="0"
 Origin="Derived"
 Comment="Renamed from the database variable PAGEID not annotated on the CRF. "
 def:Label="Sponsor-Defined Identifier">
</ItemDef>
<ItemDef 
 OID="IE.IESTRESC"
 Name="IESTRESC"
 DataType="text"
 Length="1"
 SASFieldName="IESTRESC"
 SignificantDigits="0"
 Origin="Derived"
 Comment="Equal to IEORRES. "
 def:Label="I/E Criterion Result in Std Format">
</ItemDef>
<ItemDef 
 OID="IE.IETEST"
 Name="IETEST"
 DataType="text"
 Length="200"
 SASFieldName="IETEST"
 SignificantDigits="0"
 Origin="CRF Page 39,40,41,42"
 Comment="Verbatim description of the inclusion and exclusion criterion."
 def:Label="Inclusion/Exclusion Criterion">
</ItemDef>
<ItemDef 
 OID="IE.IETESTCD"
 Name="IETESTCD"
 DataType="text"
 Length="8"
 SASFieldName="IETESTCD"
 SignificantDigits="0"
 Origin="CRF Page 39,40,41,42"
 Comment="Short name of the criterion described in IETEST. It is prefixed by I (for inclusion) and E (for exclusion) then followed by the line numbers pre-printed on the CRF pages."
 def:Label="Inclusion/Exclusion Criterion Short Name">
<CodeListRef CodeListOID="IE.IETESTCD.IETEST"/>
</ItemDef>
<ItemDef 
 OID="IE.STUDYID"
 Name="STUDYID"
 DataType="text"
 Length="8"
 SASFieldName="STUDYID"
 SignificantDigits="0"
 Origin="Protocol"
 Comment="Unique study identifier with a value of &quot;EFC6193&quot;."
 def:Label="Study Identifier">
</ItemDef>
<ItemDef 
 OID="IE.USUBJID"
 Name="USUBJID"
 DataType="text"
 Length="18"
 SASFieldName="USUBJID"
 SignificantDigits="0"
 Origin="Derived"
 Comment="Subject identification unique across all trials"
 def:Label="Unique Subject Identifier">
</ItemDef>
<ItemDef 
 OID="IE.VISIT"
 Name="VISIT"
 DataType="text"
 Length="50"
 SASFieldName="VISIT"
 SignificantDigits="0"
 Origin="Derived"
 Comment=" See Note 1"
 def:Label="Visit Name">
</ItemDef>
<ItemDef 
 OID="IE.VISITNUM"
 Name="VISITNUM"
 DataType="integer"
 Length="8"
 SASFieldName="VISITNUM"
 SignificantDigits="0"
 Origin="Derived"
 Comment=" See Note 1"
 def:Label="Visit Number">
</ItemDef>
<ItemDef 
 OID="LB.DOMAIN"
 Name="DOMAIN"
 DataType="text"
 Length="2"
 SASFieldName="DOMAIN"
 SignificantDigits="0"
 Origin="Assigned"
 Comment="Two character code. LB."
 def:Label="Domain Abbreviation">
</ItemDef>
<ItemDef 
 OID="LB.LBBLFL"
 Name="LBBLFL"
 DataType="text"
 Length="1"
 SASFieldName="LBBLFL"
 SignificantDigits="0"
 Origin="Derived"
 Comment="Y: If test assessment is the last non-missing before first dose. Missing otherwise."
 def:Label="Baseline Flag">
<CodeListRef CodeListOID="LB.LBBLFL.LBBLFL"/>
</ItemDef>
<ItemDef 
 OID="LB.LBCAT"
 Name="LBCAT"
 DataType="text"
 Length="50"
 SASFieldName="LBCAT"
 SignificantDigits="0"
 Origin="Derived"
 Comment=" See Note 7"
 def:Label="Category for Lab Test">
<CodeListRef CodeListOID="LB.LBCAT.LBCAT"/>
</ItemDef>
<ItemDef 
 OID="LB.LBDTC"
 Name="LBDTC"
 DataType="text"
 Length="19"
 SASFieldName="LBDTC"
 SignificantDigits="0"
 Origin="CRF Page 24,25,26"
 Comment="Sampling date in ISO 8601 format."
 def:Label="Date/Time of Specimen Collection">
</ItemDef>
<ItemDef 
 OID="LB.LBDY"
 Name="LBDY"
 DataType="integer"
 Length="8"
 SASFieldName="LBDY"
 SignificantDigits="0"
 Origin="Derived"
 Comment="Derived from the lab date and reference start date. Calculated as (date part of LBDTC - DM.RFSTDT) + 1, if the lab date is on or after the reference start date. Otherwise, if the lab date is prior to the reference start date, then calculated as (date part of LBDTC - DM.RFSTDT). See Note 2"
 def:Label="Study Day of Specimen Collection">
</ItemDef>
<ItemDef 
 OID="LB.LBNRIND"
 Name="LBNRIND"
 DataType="text"
 Length="20"
 SASFieldName="LBNRIND"
 SignificantDigits="0"
 Origin="Derived"
 Comment="Derived as follows:   the standard result (LBSTRESN), the low reference range (LBSTNRLO) and the high reference range (LBSTNRHI) values must all be present.   If LBSTRESN is less than LBSTNRLO then LBNRIND was set to &quot;LOW&quot;.   If LBSTRESN is greater than LBSTNRHI then LBNRIND was set to &quot;HIGH&quot;.   If LBSTRESN is greater than or equal to LBSTNRLO and less than or equal to LBSTNRHI then LBNRIND was set to &quot;NORMAL&quot;."
 def:Label="Reference Range Indicator">
<CodeListRef CodeListOID="LB.LBNRIND.LBNRIND"/>
</ItemDef>
<ItemDef 
 OID="LB.LBORNRHI"
 Name="LBORNRHI"
 DataType="text"
 Length="20"
 SASFieldName="LBORNRHI"
 SignificantDigits="0"
 Origin="Derived"
 Comment="Values are from sanofi-aventis Clinical Data Management."
 def:Label="Reference Range Upper Limit in Orig Unit">
</ItemDef>
<ItemDef 
 OID="LB.LBORNRLO"
 Name="LBORNRLO"
 DataType="text"
 Length="20"
 SASFieldName="LBORNRLO"
 SignificantDigits="0"
 Origin="Derived"
 Comment="Values are from sanofi-aventis Clinical Data Management."
 def:Label="Reference Range Lower Limit in Orig Unit">
</ItemDef>
<ItemDef 
 OID="LB.LBORRES"
 Name="LBORRES"
 DataType="text"
 Length="20"
 SASFieldName="LBORRES"
 SignificantDigits="0"
 Origin="CRF Page 24,25,26"
 Comment=""
 def:Label="Result or Finding in Original Units">
</ItemDef>
<ItemDef 
 OID="LB.LBORRESU"
 Name="LBORRESU"
 DataType="text"
 Length="20"
 SASFieldName="LBORRESU"
 SignificantDigits="0"
 Origin="CRF Page 24,25,26"
 Comment=""
 def:Label="Original Units">
</ItemDef>
<ItemDef 
 OID="LB.LBSCAT"
 Name="LBSCAT"
 DataType="text"
 Length="50"
 SASFieldName="LBSCAT"
 SignificantDigits="0"
 Origin="Derived"
 Comment=" See Note 7"
 def:Label="Subcategory for Lab Test">
<CodeListRef CodeListOID="LB.LBSCAT.LBSCAT"/>
</ItemDef>
<ItemDef 
 OID="LB.LBSEQ"
 Name="LBSEQ"
 DataType="integer"
 Length="8"
 SASFieldName="LBSEQ"
 SignificantDigits="0"
 Origin="Derived"
 Comment="Derived: a unique incremental sequence number, beginning with 1 and adding 1, for each unique occurrence of a subject, visit, lab test and lab date record."
 def:Label="Sequence Number">
</ItemDef>
<ItemDef 
 OID="LB.LBSTAT"
 Name="LBSTAT"
 DataType="text"
 Length="8"
 SASFieldName="LBSTAT"
 SignificantDigits="0"
 Origin="Derived"
 Comment="Used to indicate exam not done."
 def:Label="Lab Status">
<CodeListRef CodeListOID="LB.LBSTAT.LBSTAT"/>
</ItemDef>
<ItemDef 
 OID="LB.LBSTNRHI"
 Name="LBSTNRHI"
 DataType="integer"
 Length="8"
 SASFieldName="LBSTNRHI"
 SignificantDigits="5"
 Origin="Derived"
 Comment="Values from sanofi-aventis Clinical Data Management."
 def:Label="Reference Range Upper Limit-Std Units">
</ItemDef>
<ItemDef 
 OID="LB.LBSTNRLO"
 Name="LBSTNRLO"
 DataType="float"
 Length="8"
 SASFieldName="LBSTNRLO"
 SignificantDigits="5"
 Origin="Derived"
 Comment="Values from sanofi-aventis Clinical Data Management."
 def:Label="Reference Range Lower Limit-Std Units">
</ItemDef>
<ItemDef 
 OID="LB.LBSTRESC"
 Name="LBSTRESC"
 DataType="text"
 Length="20"
 SASFieldName="LBSTRESC"
 SignificantDigits="0"
 Origin="Derived"
 Comment="Character representation of LBSTRESN."
 def:Label="Character Result/Finding in Std Format">
</ItemDef>
<ItemDef 
 OID="LB.LBSTRESN"
 Name="LBSTRESN"
 DataType="float"
 Length="8"
 SASFieldName="LBSTRESN"
 SignificantDigits="6"
 Origin="Derived"
 Comment="Numeric result for LBSTRESC."
 def:Label="Numeric Result/Finding in Standard Units">
</ItemDef>
<ItemDef 
 OID="LB.LBSTRESU"
 Name="LBSTRESU"
 DataType="text"
 Length="20"
 SASFieldName="LBSTRESU"
 SignificantDigits="0"
 Origin="Derived"
 Comment="Standardized units used for LBSTRESC or LBSTRESN."
 def:Label="Standard Units">
</ItemDef>
<ItemDef 
 OID="LB.LBTEST"
 Name="LBTEST"
 DataType="text"
 Length="50"
 SASFieldName="LBTEST"
 SignificantDigits="0"
 Origin="CRF Page 24,25,26"
 Comment=" See Note 6"
 def:Label="Lab Test or Examination Name">
</ItemDef>
<ItemDef 
 OID="LB.LBTESTCD"
 Name="LBTESTCD"
 DataType="text"
 Length="8"
 SASFieldName="LBTESTCD"
 SignificantDigits="0"
 Origin="Derived"
 Comment=" See Note 6"
 def:Label="Lab Test or Examination Short Name">
<CodeListRef CodeListOID="LB.LBTESTCD.LBTEST"/>
</ItemDef>
<ItemDef 
 OID="LB.LBTOX"
 Name="LBTOX"
 DataType="text"
 Length="40"
 SASFieldName="LBTOX"
 SignificantDigits="0"
 Origin="Derived"
 Comment="Descriptive toxicity. NCI CTCAE, version 3.0 used for grading. See codelist for possible values."
 def:Label="Toxicity">
<CodeListRef CodeListOID="LB.LBTOX.LBTOX"/>
</ItemDef>
<ItemDef 
 OID="LB.LBTOXGR"
 Name="LBTOXGR"
 DataType="text"
 Length="1"
 SASFieldName="LBTOXGR"
 SignificantDigits="0"
 Origin="Derived"
 Comment="Grade of toxicity.NCI CTCAE, version 3.0 used for grading. See codelist for possible values.  "
 def:Label="Standard Toxicity Grade">
<CodeListRef CodeListOID="LB.LBTOXGR.LBTOXGR"/>
</ItemDef>
<ItemDef 
 OID="LB.STUDYID"
 Name="STUDYID"
 DataType="text"
 Length="8"
 SASFieldName="STUDYID"
 SignificantDigits="0"
 Origin="Protocol"
 Comment="Unique study identifier with a value of &quot;EFC6193&quot;."
 def:Label="Study Identifier">
</ItemDef>
<ItemDef 
 OID="LB.USUBJID"
 Name="USUBJID"
 DataType="text"
 Length="18"
 SASFieldName="USUBJID"
 SignificantDigits="0"
 Origin="Derived"
 Comment="Subject identification unique across all trials"
 def:Label="Unique Subject Identifier">
</ItemDef>
<ItemDef 
 OID="LB.VISIT"
 Name="VISIT"
 DataType="text"
 Length="50"
 SASFieldName="VISIT"
 SignificantDigits="0"
 Origin="Derived"
 Comment=" See Note 1"
 def:Label="Visit Name">
</ItemDef>
<ItemDef 
 OID="LB.VISITNUM"
 Name="VISITNUM"
 DataType="integer"
 Length="8"
 SASFieldName="VISITNUM"
 SignificantDigits="0"
 Origin="Derived"
 Comment=" See Note 1"
 def:Label="Visit Number">
</ItemDef>
<ItemDef 
 OID="LS.DOMAIN"
 Name="DOMAIN"
 DataType="text"
 Length="2"
 SASFieldName="DOMAIN"
 SignificantDigits="0"
 Origin="Assigned"
 Comment="Two character code. LS."
 def:Label="Domain Abbreviation">
</ItemDef>
<ItemDef 
 OID="LS.LSBLFL"
 Name="LSBLFL"
 DataType="text"
 Length="1"
 SASFieldName="LSBLFL"
 SignificantDigits="0"
 Origin="Derived"
 Comment="Baseline flag was not used and therefore set to null."
 def:Label="Baseline Flag">
</ItemDef>
<ItemDef 
 OID="LS.LSCAT"
 Name="LSCAT"
 DataType="text"
 Length="50"
 SASFieldName="LSCAT"
 SignificantDigits="0"
 Origin="CRF Page 33"
 Comment="Used to categorize lesions. Equal to &quot;TARGET&quot; if data corresponds to Target lesions. Equal to &quot;NON-TARGET&quot; if data corresponds to Non-target lesions."
 def:Label="Category for Lesions">
<CodeListRef CodeListOID="LS.LSCAT.LSCAT"/>
</ItemDef>
<ItemDef 
 OID="LS.LSDTC"
 Name="LSDTC"
 DataType="text"
 Length="19"
 SASFieldName="LSDTC"
 SignificantDigits="0"
 Origin="CRF Page 33,55"
 Comment="Assessment date (ISO 8601 format)."
 def:Label="Date/Time Performed">
</ItemDef>
<ItemDef 
 OID="LS.LSLOC"
 Name="LSLOC"
 DataType="text"
 Length="100"
 SASFieldName="LSLOC"
 SignificantDigits="0"
 Origin="CRF Page 33,55"
 Comment=""
 def:Label="Location of Tumor">
<CodeListRef CodeListOID="LS.LSLOC.LSLOC"/>
</ItemDef>
<ItemDef 
 OID="LS.LSMETHOD"
 Name="LSMETHOD"
 DataType="text"
 Length="18"
 SASFieldName="LSMETHOD"
 SignificantDigits="0"
 Origin="CRF Page 33,55"
 Comment=""
 def:Label="Test Method">
<CodeListRef CodeListOID="LS.LSMETHOD.LSMETHOD"/>
</ItemDef>
<ItemDef 
 OID="LS.LSORRES"
 Name="LSORRES"
 DataType="text"
 Length="60"
 SASFieldName="LSORRES"
 SignificantDigits="0"
 Origin="CRF Page 33,55"
 Comment="Result of the lesion measurement or response of the non-target lesions. Equal to the measurement when data corresponds to a target lesion. Equal to the response when data corresponds to a non-target lesion."
 def:Label="Result or Finding in Original Units">
</ItemDef>
<ItemDef 
 OID="LS.LSORRESU"
 Name="LSORRESU"
 DataType="text"
 Length="20"
 SASFieldName="LSORRESU"
 SignificantDigits="0"
 Origin="Derived"
 Comment="Original units in which the data were collected. Equal to  ?mm? when data corresponds to a target lesion."
 def:Label="Original Units">
</ItemDef>
<ItemDef 
 OID="LS.LSSEQ"
 Name="LSSEQ"
 DataType="integer"
 Length="8"
 SASFieldName="LSSEQ"
 SignificantDigits="0"
 Origin="Derived"
 Comment="Derived: a unique incremental sequence number, beginning with 1 and adding 1, for each unique occurrence of a subject, visit, lesion test and lesion test date record."
 def:Label="Sequence Number">
</ItemDef>
<ItemDef 
 OID="LS.LSSPID"
 Name="LSSPID"
 DataType="text"
 Length="8"
 SASFieldName="LSSPID"
 SignificantDigits="0"
 Origin="Derived"
 Comment="Concatenation of line identifiers, separated by a &apos;.&apos;."
 def:Label="Sponsor-Defined Identifier">
</ItemDef>
<ItemDef 
 OID="LS.LSSTAT"
 Name="LSSTAT"
 DataType="text"
 Length="8"
 SASFieldName="LSSTAT"
 SignificantDigits="0"
 Origin="CRF Page 55"
 Comment="Derived when LSTEST=&apos;RESPONSE OF NON-TARGET LESION&apos; and LSORRES is null."
 def:Label="Tumor Measurement Status">
<CodeListRef CodeListOID="LS.LSSTAT.LSSTAT"/>
</ItemDef>
<ItemDef 
 OID="LS.LSSTRESC"
 Name="LSSTRESC"
 DataType="text"
 Length="60"
 SASFieldName="LSSTRESC"
 SignificantDigits="0"
 Origin="Derived"
 Comment="Equal to LSORRES."
 def:Label="Character Result/Finding in Std Format">
</ItemDef>
<ItemDef 
 OID="LS.LSSTRESN"
 Name="LSSTRESN"
 DataType="float"
 Length="8"
 SASFieldName="LSSTRESN"
 SignificantDigits="2"
 Origin="Derived"
 Comment="Applicable when data correspond to a target lesion"
 def:Label="Numeric Result/Finding in Standard Units">
</ItemDef>
<ItemDef 
 OID="LS.LSSTRESU"
 Name="LSSTRESU"
 DataType="text"
 Length="20"
 SASFieldName="LSSTRESU"
 SignificantDigits="0"
 Origin="Derived"
 Comment="Equal to LSORRESU."
 def:Label="Standard Units">
</ItemDef>
<ItemDef 
 OID="LS.LSTEST"
 Name="LSTEST"
 DataType="text"
 Length="40"
 SASFieldName="LSTEST"
 SignificantDigits="0"
 Origin="Derived"
 Comment="Verbatim name of the test used to obtain the measurement or finding. Equal to &quot;Measurement of Target Lesion&quot; if data correspond to Target lesions. Equal to &quot;Response of Non-Target Lesion&quot; if data correspond to Non-target lesions ."
 def:Label="Lesion Test">
</ItemDef>
<ItemDef 
 OID="LS.LSTESTCD"
 Name="LSTESTCD"
 DataType="text"
 Length="8"
 SASFieldName="LSTESTCD"
 SignificantDigits="0"
 Origin="Derived"
 Comment="Short name of the TEST in LSTEST.Equal to &quot;LENGTH&quot; if data correspond to Target lesions.Equal to &quot;STATUS&quot; if data correspond to Non-target lesions."
 def:Label="Short Name of LSTEST">
<CodeListRef CodeListOID="LS.LSTESTCD.LSTEST"/>
</ItemDef>
<ItemDef 
 OID="LS.STUDYID"
 Name="STUDYID"
 DataType="text"
 Length="8"
 SASFieldName="STUDYID"
 SignificantDigits="0"
 Origin="Protocol"
 Comment="Unique study identifier with a value of &quot;EFC6193&quot;."
 def:Label="Study Identifier">
</ItemDef>
<ItemDef 
 OID="LS.USUBJID"
 Name="USUBJID"
 DataType="text"
 Length="18"
 SASFieldName="USUBJID"
 SignificantDigits="0"
 Origin="Derived"
 Comment="Subject identification unique across all trials"
 def:Label="Unique Subject Identifier">
</ItemDef>
<ItemDef 
 OID="LS.VISIT"
 Name="VISIT"
 DataType="text"
 Length="50"
 SASFieldName="VISIT"
 SignificantDigits="0"
 Origin="Derived"
 Comment=" See Note 1"
 def:Label="Visit Name">
</ItemDef>
<ItemDef 
 OID="LS.VISITNUM"
 Name="VISITNUM"
 DataType="integer"
 Length="8"
 SASFieldName="VISITNUM"
 SignificantDigits="0"
 Origin="Derived"
 Comment=" See Note 1"
 def:Label="Visit Number">
</ItemDef>
<ItemDef 
 OID="MH.DOMAIN"
 Name="DOMAIN"
 DataType="text"
 Length="2"
 SASFieldName="DOMAIN"
 SignificantDigits="0"
 Origin="Assigned"
 Comment="Two character code. MH."
 def:Label="Domain Abbreviation">
</ItemDef>
<ItemDef 
 OID="MH.MHBODSYS"
 Name="MHBODSYS"
 DataType="text"
 Length="120"
 SASFieldName="MHBODSYS"
 SignificantDigits="0"
 Origin="Derived"
 Comment="Body system or organ class (Primary SOC) that is involved in an event or measurement from the standard hierarchy. Dictionary WHODD 2009 MAR."
 def:Label="Body System or Organ Class">
</ItemDef>
<ItemDef 
 OID="MH.MHCAT"
 Name="MHCAT"
 DataType="text"
 Length="50"
 SASFieldName="MHCAT"
 SignificantDigits="0"
 Origin="Derived"
 Comment="Set equal to PRIOR ANTI-CANCER SURGERIES for data collected on CRF page 14 or MEDICAL HISTORY for data collected on CRF page 21."
 def:Label="Category for Medical History">
<CodeListRef CodeListOID="MH.MHCAT.MHCAT"/>
</ItemDef>
<ItemDef 
 OID="MH.MHDECOD"
 Name="MHDECOD"
 DataType="text"
 Length="200"
 SASFieldName="MHDECOD"
 SignificantDigits="0"
 Origin="Derived"
 Comment="Dictionary-derived text description of MHTERM. Dictionary MedDRA 12.0"
 def:Label="Dictionary-Derived Term">
</ItemDef>
<ItemDef 
 OID="MH.MHSEQ"
 Name="MHSEQ"
 DataType="integer"
 Length="8"
 SASFieldName="MHSEQ"
 SignificantDigits="0"
 Origin="Derived"
 Comment="Derived: a unique incremental sequence number, beginning with 1 and adding 1, for each unique occurrence of a subject, visit, CRF sequence number and medical history term record."
 def:Label="Sequence Number">
</ItemDef>
<ItemDef 
 OID="MH.MHSPID"
 Name="MHSPID"
 DataType="text"
 Length="2"
 SASFieldName="MHSPID"
 SignificantDigits="0"
 Origin="CRF Page 14,21"
 Comment=""
 def:Label="Sponsor-Defined Identifier">
</ItemDef>
<ItemDef 
 OID="MH.MHSTDTC"
 Name="MHSTDTC"
 DataType="text"
 Length="19"
 SASFieldName="MHSTDTC"
 SignificantDigits="0"
 Origin="CRF Page 14,21"
 Comment="Medical history date (ISO 8601 format)."
 def:Label="Start Date/Time of Medical History Event">
</ItemDef>
<ItemDef 
 OID="MH.MHTERM"
 Name="MHTERM"
 DataType="text"
 Length="200"
 SASFieldName="MHTERM"
 SignificantDigits="0"
 Origin="CRF Page 14,21"
 Comment=""
 def:Label="Reported Term for the Medical History">
</ItemDef>
<ItemDef 
 OID="MH.STUDYID"
 Name="STUDYID"
 DataType="text"
 Length="8"
 SASFieldName="STUDYID"
 SignificantDigits="0"
 Origin="Protocol"
 Comment="Unique study identifier with a value of &quot;EFC6193&quot;."
 def:Label="Study Identifier">
</ItemDef>
<ItemDef 
 OID="MH.USUBJID"
 Name="USUBJID"
 DataType="text"
 Length="18"
 SASFieldName="USUBJID"
 SignificantDigits="0"
 Origin="Derived"
 Comment="Subject identification unique across all trials"
 def:Label="Unique Subject Identifier">
</ItemDef>
<ItemDef 
 OID="MH.VISIT"
 Name="VISIT"
 DataType="text"
 Length="50"
 SASFieldName="VISIT"
 SignificantDigits="0"
 Origin="Derived"
 Comment=" See Note 1"
 def:Label="Visit Name">
</ItemDef>
<ItemDef 
 OID="MH.VISITNUM"
 Name="VISITNUM"
 DataType="integer"
 Length="8"
 SASFieldName="VISITNUM"
 SignificantDigits="0"
 Origin="Derived"
 Comment=" See Note 1"
 def:Label="Visit Number">
</ItemDef>
<ItemDef 
 OID="PE.DOMAIN"
 Name="DOMAIN"
 DataType="text"
 Length="2"
 SASFieldName="DOMAIN"
 SignificantDigits="0"
 Origin="Assigned"
 Comment="Two character code. PE."
 def:Label="Domain Abbreviation">
</ItemDef>
<ItemDef 
 OID="PE.PEBLFL"
 Name="PEBLFL"
 DataType="text"
 Length="1"
 SASFieldName="PEBLFL"
 SignificantDigits="0"
 Origin="Derived"
 Comment="Set equal to null. Baseline observations were not part of the PE analysis."
 def:Label="Baseline Flag">
</ItemDef>
<ItemDef 
 OID="PE.PEDTC"
 Name="PEDTC"
 DataType="text"
 Length="19"
 SASFieldName="PEDTC"
 SignificantDigits="0"
 Origin="CRF Page 27,31,43,506"
 Comment="Examination date in ISO 8601 format."
 def:Label="Date/Time of Examination">
</ItemDef>
<ItemDef 
 OID="PE.PEDY"
 Name="PEDY"
 DataType="integer"
 Length="8"
 SASFieldName="PEDY"
 SignificantDigits="0"
 Origin="Derived"
 Comment="Derived from examination date and reference start date. Calculated as (date part of PEDTC - DM.RFSTDT) + 1, if the date of physical exam is on or after the reference start date. Otherwise, if the date of physical exam is prior to the reference start date, then calculated as (date part of PEDTC - DM.RFSTDT). See Note 2"
 def:Label="Study Day of Examination">
</ItemDef>
<ItemDef 
 OID="PE.PEMETHOD"
 Name="PEMETHOD"
 DataType="text"
 Length="18"
 SASFieldName="PEMETHOD"
 SignificantDigits="0"
 Origin="CRF Page 31"
 Comment=""
 def:Label="Method of Test or Examination">
<CodeListRef CodeListOID="PE.PEMETHOD.PEMETHOD"/>
</ItemDef>
<ItemDef 
 OID="PE.PEORRES"
 Name="PEORRES"
 DataType="text"
 Length="200"
 SASFieldName="PEORRES"
 SignificantDigits="0"
 Origin="CRF Page 31,43,506"
 Comment=""
 def:Label="Verbatim Examination Finding">
</ItemDef>
<ItemDef 
 OID="PE.PESEQ"
 Name="PESEQ"
 DataType="integer"
 Length="8"
 SASFieldName="PESEQ"
 SignificantDigits="0"
 Origin="Derived"
 Comment="Derived: a unique incremental sequence number, beginning with 1 and adding 1, for each unique occurrence of a subject, visit, CRF sequence number and physical exam test record."
 def:Label="Sequence Number">
</ItemDef>
<ItemDef 
 OID="PE.PESTRESC"
 Name="PESTRESC"
 DataType="text"
 Length="50"
 SASFieldName="PESTRESC"
 SignificantDigits="0"
 Origin="Derived"
 Comment="Set equal to either &apos;CLINICALLY SIGNIFICANT CHANGES&apos; or &apos; NO CLINICALLY SIGNIFICANT CHANGES&apos; based on if PEORRES equals &apos;YES&apos; or &apos;NO&apos; for data collected on CRF pages 27 and 43."
 def:Label="Character Result/Finding in Std. Format">
</ItemDef>
<ItemDef 
 OID="PE.PESTRESN"
 Name="PESTRESN"
 DataType="integer"
 Length="8"
 SASFieldName="PESTRESN"
 SignificantDigits="0"
 Origin="Derived"
 Comment="Set equal to null."
 def:Label="Numeric Result/Finding in Standard Units">
</ItemDef>
<ItemDef 
 OID="PE.PESTRESU"
 Name="PESTRESU"
 DataType="text"
 Length="20"
 SASFieldName="PESTRESU"
 SignificantDigits="0"
 Origin="Derived"
 Comment="Set equal to null."
 def:Label="Standard Units">
</ItemDef>
<ItemDef 
 OID="PE.PETEST"
 Name="PETEST"
 DataType="text"
 Length="40"
 SASFieldName="PETEST"
 SignificantDigits="0"
 Origin="CRF Page 31,506"
 Comment="See the codelist for PETESTCD for possible values. Set equal to &quot;ALL&quot; for data collected on CRF pages 27 and 43."
 def:Label="Body System Examined">
</ItemDef>
<ItemDef 
 OID="PE.PETESTCD"
 Name="PETESTCD"
 DataType="text"
 Length="8"
 SASFieldName="PETESTCD"
 SignificantDigits="0"
 Origin="Derived"
 Comment="Short version of PETEST."
 def:Label="Body System Examined Short Name">
<CodeListRef CodeListOID="PE.PETESTCD.PETEST"/>
</ItemDef>
<ItemDef 
 OID="PE.STUDYID"
 Name="STUDYID"
 DataType="text"
 Length="8"
 SASFieldName="STUDYID"
 SignificantDigits="0"
 Origin="Protocol"
 Comment="Unique study identifier with a value of &quot;EFC6193&quot;."
 def:Label="Study Identifier">
</ItemDef>
<ItemDef 
 OID="PE.USUBJID"
 Name="USUBJID"
 DataType="text"
 Length="18"
 SASFieldName="USUBJID"
 SignificantDigits="0"
 Origin="Derived"
 Comment="Subject identification unique across all trials"
 def:Label="Unique Subject Identifier">
</ItemDef>
<ItemDef 
 OID="PE.VISIT"
 Name="VISIT"
 DataType="text"
 Length="50"
 SASFieldName="VISIT"
 SignificantDigits="0"
 Origin="Derived"
 Comment=" See Note 1"
 def:Label="Visit Name">
</ItemDef>
<ItemDef 
 OID="PE.VISITNUM"
 Name="VISITNUM"
 DataType="integer"
 Length="8"
 SASFieldName="VISITNUM"
 SignificantDigits="0"
 Origin="Derived"
 Comment=" See Note 1"
 def:Label="Visit Number">
</ItemDef>
<ItemDef 
 OID="PN.DOMAIN"
 Name="DOMAIN"
 DataType="text"
 Length="2"
 SASFieldName="DOMAIN"
 SignificantDigits="0"
 Origin="Assigned"
 Comment="Two character code. PN."
 def:Label="Domain Abbreviation">
</ItemDef>
<ItemDef 
 OID="PN.PNCAT"
 Name="PNCAT"
 DataType="text"
 Length="50"
 SASFieldName="PNCAT"
 SignificantDigits="0"
 Origin="Derived"
 Comment="Set equal to &quot;PAIN INTENSITY ASSESSMENT&quot;."
 def:Label="Category for Pain Intensity Assessment">
<CodeListRef CodeListOID="PN.PNCAT.PNCAT"/>
</ItemDef>
<ItemDef 
 OID="PN.PNDTC"
 Name="PNDTC"
 DataType="text"
 Length="19"
 SASFieldName="PNDTC"
 SignificantDigits="0"
 Origin="CRF Page 53"
 Comment="Pain assessment date in ISO 8601 format."
 def:Label="Date/Time Performed">
</ItemDef>
<ItemDef 
 OID="PN.PNORRES"
 Name="PNORRES"
 DataType="text"
 Length="60"
 SASFieldName="PNORRES"
 SignificantDigits="0"
 Origin="CRF Page 53"
 Comment=""
 def:Label="Result or Finding in Original Units">
</ItemDef>
<ItemDef 
 OID="PN.PNORRESU"
 Name="PNORRESU"
 DataType="text"
 Length="20"
 SASFieldName="PNORRESU"
 SignificantDigits="0"
 Origin="Derived"
 Comment="Set equal to &quot;McGill-Melzack Scale&quot; for pain intensity and &quot;Morphine Equivalents&quot; for analgesic score."
 def:Label="Original Units">
</ItemDef>
<ItemDef 
 OID="PN.PNSEQ"
 Name="PNSEQ"
 DataType="integer"
 Length="8"
 SASFieldName="PNSEQ"
 SignificantDigits="0"
 Origin="Derived"
 Comment="Derived: a unique incremental sequence number, beginning with 1 and adding 1, for each unique occurrence of a subject, visit and lineid."
 def:Label="Sequence Number">
</ItemDef>
<ItemDef 
 OID="PN.PNSPID"
 Name="PNSPID"
 DataType="text"
 Length="8"
 SASFieldName="PNSPID"
 SignificantDigits="0"
 Origin="Derived"
 Comment="Concatenation of page and line numbers, separated by a &apos;.&apos;."
 def:Label="Sponsor-Defined Identifier">
</ItemDef>
<ItemDef 
 OID="PN.PNSTAT"
 Name="PNSTAT"
 DataType="text"
 Length="8"
 SASFieldName="PNSTAT"
 SignificantDigits="0"
 Origin="Derived"
 Comment="If PNORRES is missing then PNSTAT = &quot;NOT DONE&quot;."
 def:Label="Examination Status">
<CodeListRef CodeListOID="PN.PNSTAT.PNSTAT"/>
</ItemDef>
<ItemDef 
 OID="PN.PNSTRESC"
 Name="PNSTRESC"
 DataType="text"
 Length="60"
 SASFieldName="PNSTRESC"
 SignificantDigits="0"
 Origin="Derived"
 Comment="Set equal to PNORRES."
 def:Label="Character Result/Finding in Std Format">
</ItemDef>
<ItemDef 
 OID="PN.PNSTRESN"
 Name="PNSTRESN"
 DataType="float"
 Length="8"
 SASFieldName="PNSTRESN"
 SignificantDigits="2"
 Origin="Derived"
 Comment="Numeric representation of PNORRES."
 def:Label="Numeric Result/Finding in Standard Units">
</ItemDef>
<ItemDef 
 OID="PN.PNSTRESU"
 Name="PNSTRESU"
 DataType="text"
 Length="20"
 SASFieldName="PNSTRESU"
 SignificantDigits="0"
 Origin="Derived"
 Comment="Set equal to PNORRESU."
 def:Label="Standard Units">
</ItemDef>
<ItemDef 
 OID="PN.PNTEST"
 Name="PNTEST"
 DataType="text"
 Length="40"
 SASFieldName="PNTEST"
 SignificantDigits="0"
 Origin="Derived"
 Comment="Verbatim name of the assessment."
 def:Label="Pain Intensity Assessment">
</ItemDef>
<ItemDef 
 OID="PN.PNTESTCD"
 Name="PNTESTCD"
 DataType="text"
 Length="8"
 SASFieldName="PNTESTCD"
 SignificantDigits="0"
 Origin="Derived"
 Comment="Short version of PNTEST."
 def:Label="Short Name of PNTEST">
<CodeListRef CodeListOID="PN.PNTESTCD.PNTEST"/>
</ItemDef>
<ItemDef 
 OID="PN.STUDYID"
 Name="STUDYID"
 DataType="text"
 Length="8"
 SASFieldName="STUDYID"
 SignificantDigits="0"
 Origin="Protocol"
 Comment="Unique study identifier with a value of &quot;EFC6193&quot;."
 def:Label="Study Identifier">
</ItemDef>
<ItemDef 
 OID="PN.USUBJID"
 Name="USUBJID"
 DataType="text"
 Length="18"
 SASFieldName="USUBJID"
 SignificantDigits="0"
 Origin="Derived"
 Comment="Subject identification unique across all trials"
 def:Label="Unique Subject Identifier">
</ItemDef>
<ItemDef 
 OID="PN.VISIT"
 Name="VISIT"
 DataType="text"
 Length="50"
 SASFieldName="VISIT"
 SignificantDigits="0"
 Origin="Derived"
 Comment=" See Note 1"
 def:Label="Visit Name">
</ItemDef>
<ItemDef 
 OID="PN.VISITNUM"
 Name="VISITNUM"
 DataType="integer"
 Length="8"
 SASFieldName="VISITNUM"
 SignificantDigits="0"
 Origin="Derived"
 Comment=" See Note 1"
 def:Label="Visit Number">
</ItemDef>
<ItemDef 
 OID="PR.DOMAIN"
 Name="DOMAIN"
 DataType="text"
 Length="2"
 SASFieldName="DOMAIN"
 SignificantDigits="0"
 Origin="Assigned"
 Comment="Two character code. PR."
 def:Label="Domain Abbreviation">
</ItemDef>
<ItemDef 
 OID="PR.PRCAT"
 Name="PRCAT"
 DataType="text"
 Length="100"
 SASFieldName="PRCAT"
 SignificantDigits="0"
 Origin="CRF Page 511"
 Comment=""
 def:Label="Category for Procedure">
<CodeListRef CodeListOID="PR.PRCAT.PRCAT"/>
</ItemDef>
<ItemDef 
 OID="PR.PRDTC"
 Name="PRDTC"
 DataType="text"
 Length="19"
 SASFieldName="PRDTC"
 SignificantDigits="0"
 Origin="CRF Page 511"
 Comment="Procedure date (ISO 8601 format)."
 def:Label="Date/Time of Procedure">
</ItemDef>
<ItemDef 
 OID="PR.PRSEQ"
 Name="PRSEQ"
 DataType="integer"
 Length="8"
 SASFieldName="PRSEQ"
 SignificantDigits="0"
 Origin="Derived"
 Comment="Derived: a unique incremental sequence number, beginning with 1 and adding 1, for each unique occurrence of a subject, visit and procedure start date."
 def:Label="Sequence Number">
</ItemDef>
<ItemDef 
 OID="PR.PRTRT"
 Name="PRTRT"
 DataType="text"
 Length="200"
 SASFieldName="PRTRT"
 SignificantDigits="0"
 Origin="CRF Page 511"
 Comment=""
 def:Label="Reported Name of Procedure">
</ItemDef>
<ItemDef 
 OID="PR.STUDYID"
 Name="STUDYID"
 DataType="text"
 Length="8"
 SASFieldName="STUDYID"
 SignificantDigits="0"
 Origin="Protocol"
 Comment="Unique study identifier with a value of &quot;EFC6193&quot;."
 def:Label="Study Identifier">
</ItemDef>
<ItemDef 
 OID="PR.USUBJID"
 Name="USUBJID"
 DataType="text"
 Length="18"
 SASFieldName="USUBJID"
 SignificantDigits="0"
 Origin="Derived"
 Comment="Subject identification unique across all trials"
 def:Label="Unique Subject Identifier">
</ItemDef>
<ItemDef 
 OID="PR.VISIT"
 Name="VISIT"
 DataType="text"
 Length="50"
 SASFieldName="VISIT"
 SignificantDigits="0"
 Origin="Derived"
 Comment=" See Note 1"
 def:Label="Visit Name">
</ItemDef>
<ItemDef 
 OID="PR.VISITNUM"
 Name="VISITNUM"
 DataType="integer"
 Length="8"
 SASFieldName="VISITNUM"
 SignificantDigits="0"
 Origin="Derived"
 Comment=" See Note 1"
 def:Label="Visit Number">
</ItemDef>
<ItemDef 
 OID="SC.DOMAIN"
 Name="DOMAIN"
 DataType="text"
 Length="2"
 SASFieldName="DOMAIN"
 SignificantDigits="0"
 Origin="Assigned"
 Comment="Two character code. SC."
 def:Label="Domain Abbreviation">
</ItemDef>
<ItemDef 
 OID="SC.SCDTC"
 Name="SCDTC"
 DataType="text"
 Length="19"
 SASFieldName="SCDTC"
 SignificantDigits="0"
 Origin="CRF Page 12"
 Comment="The value of this variable is the date of consent, also represented in DS.DSSTDTC where DS.DSTERM=&quot;INFORMED CONSENT OBTAINED&quot;. In ISO 8601 format."
 def:Label="Date/Time of Collection">
</ItemDef>
<ItemDef 
 OID="SC.SCDY"
 Name="SCDY"
 DataType="integer"
 Length="8"
 SASFieldName="SCDY"
 SignificantDigits="0"
 Origin="Derived"
 Comment="Derived. Calculated as (date part of SCDTC - DM.RFSTDT) + 1, if the date of collection is on or after the reference start date. Otherwise, if the date of collection is prior to the reference start date, then calculated as (date part of SCDTC - DM.RFSTDT). See Note 2"
 def:Label="Study day of Examination">
</ItemDef>
<ItemDef 
 OID="SC.SCORRES"
 Name="SCORRES"
 DataType="text"
 Length="20"
 SASFieldName="SCORRES"
 SignificantDigits="0"
 Origin="CRF Page 12"
 Comment=""
 def:Label="Result or Finding in Original Units">
</ItemDef>
<ItemDef 
 OID="SC.SCSEQ"
 Name="SCSEQ"
 DataType="integer"
 Length="8"
 SASFieldName="SCSEQ"
 SignificantDigits="0"
 Origin="Derived"
 Comment="Derived: a unique incremental sequence number, beginning with 1 and adding 1, for each unique occurrence of a subject."
 def:Label="Sequence Number">
</ItemDef>
<ItemDef 
 OID="SC.SCSTRESC"
 Name="SCSTRESC"
 DataType="text"
 Length="20"
 SASFieldName="SCSTRESC"
 SignificantDigits="0"
 Origin="Derived"
 Comment="Set equal to SCORRES."
 def:Label="Character Result/Finding in Std Format">
</ItemDef>
<ItemDef 
 OID="SC.SCTEST"
 Name="SCTEST"
 DataType="text"
 Length="40"
 SASFieldName="SCTEST"
 SignificantDigits="0"
 Origin="Derived"
 Comment="Set equal to &quot;OTHER RACE INFORMATION&quot;."
 def:Label="Subject Characteristic">
</ItemDef>
<ItemDef 
 OID="SC.SCTESTCD"
 Name="SCTESTCD"
 DataType="text"
 Length="8"
 SASFieldName="SCTESTCD"
 SignificantDigits="0"
 Origin="Derived"
 Comment="Set equal to &quot;RACEOTH&quot;."
 def:Label="Subject Characteristic Short Name">
<CodeListRef CodeListOID="SC.SCTESTCD.SCTEST"/>
</ItemDef>
<ItemDef 
 OID="SC.STUDYID"
 Name="STUDYID"
 DataType="text"
 Length="8"
 SASFieldName="STUDYID"
 SignificantDigits="0"
 Origin="Protocol"
 Comment="Unique study identifier with a value of &quot;EFC6193&quot;."
 def:Label="Study Identifier">
</ItemDef>
<ItemDef 
 OID="SC.USUBJID"
 Name="USUBJID"
 DataType="text"
 Length="18"
 SASFieldName="USUBJID"
 SignificantDigits="0"
 Origin="Derived"
 Comment="Subject identification unique across all trials"
 def:Label="Unique Subject Identifier">
</ItemDef>
<ItemDef 
 OID="SUPPAE.IDVAR"
 Name="IDVAR"
 DataType="text"
 Length="5"
 SASFieldName="IDVAR"
 SignificantDigits="0"
 Origin="Derived"
 Comment="Identifier variable in the dataset that dentifies the related record(s).  "
 def:Label="Identifying Variable">
</ItemDef>
<ItemDef 
 OID="SUPPAE.IDVARVAL"
 Name="IDVARVAL"
 DataType="text"
 Length="32"
 SASFieldName="IDVARVAL"
 SignificantDigits="0"
 Origin="Derived"
 Comment="Value of identifier variable of the parent record(s)."
 def:Label="Identifying Variable Value">
</ItemDef>
<ItemDef 
 OID="SUPPAE.QEVAL"
 Name="QEVAL"
 DataType="text"
 Length="1"
 SASFieldName="QEVAL"
 SignificantDigits="0"
 Origin="CRF or Derived"
 Comment="Evaluator for results that are subjective."
 def:Label="Evaluator">
</ItemDef>
<ItemDef 
 OID="SUPPAE.QLABEL"
 Name="QLABEL"
 DataType="text"
 Length="49"
 SASFieldName="QLABEL"
 SignificantDigits="0"
 Origin="Derived"
 Comment="The long name or label associated with QNAM."
 def:Label="Qualifier Variable Label">
</ItemDef>
<ItemDef 
 OID="SUPPAE.QNAM"
 Name="QNAM"
 DataType="text"
 Length="8"
 SASFieldName="QNAM"
 SignificantDigits="0"
 Origin="CRF Page 34,62"
 Comment="The short name of the Qualifier variable."
 def:Label="Qualifier Variable Name">
<def:ValueListRef ValueListOID="ValueList.SUPPAE.QNAM"/>
</ItemDef>
<ItemDef 
 OID="SUPPAE.QORIG"
 Name="QORIG"
 DataType="text"
 Length="50"
 SASFieldName="QORIG"
 SignificantDigits="0"
 Origin="Derived"
 Comment="Origin indicator of the data collected, derived, or assigned."
 def:Label="Origin">
</ItemDef>
<ItemDef 
 OID="SUPPAE.QVAL"
 Name="QVAL"
 DataType="text"
 Length="200"
 SASFieldName="QVAL"
 SignificantDigits="0"
 Origin="CRF or Derived"
 Comment="Result of, response to, or value associated with QNAM."
 def:Label="Data Value">
</ItemDef>
<ItemDef 
 OID="SUPPAE.RDOMAIN"
 Name="RDOMAIN"
 DataType="text"
 Length="2"
 SASFieldName="RDOMAIN"
 SignificantDigits="0"
 Origin="Assigned"
 Comment="Domain abbreviation of the parent record(s)."
 def:Label="Related Domain Abbreviation">
</ItemDef>
<ItemDef 
 OID="SUPPAE.STUDYID"
 Name="STUDYID"
 DataType="text"
 Length="8"
 SASFieldName="STUDYID"
 SignificantDigits="0"
 Origin="Protocol"
 Comment="Unique study identifier with a value of &quot;EFC6193&quot;."
 def:Label="Study Identifier">
</ItemDef>
<ItemDef 
 OID="SUPPAE.USUBJID"
 Name="USUBJID"
 DataType="text"
 Length="18"
 SASFieldName="USUBJID"
 SignificantDigits="0"
 Origin="Derived"
 Comment="Subject identification unique across all trials"
 def:Label="Unique Subject Identifier">
</ItemDef>
<ItemDef 
 OID="SUPPCM.IDVAR"
 Name="IDVAR"
 DataType="text"
 Length="5"
 SASFieldName="IDVAR"
 SignificantDigits="0"
 Origin="Derived"
 Comment="Identifier variable in the dataset that dentifies the related record(s)."
 def:Label="Identifying Variable">
</ItemDef>
<ItemDef 
 OID="SUPPCM.IDVARVAL"
 Name="IDVARVAL"
 DataType="text"
 Length="32"
 SASFieldName="IDVARVAL"
 SignificantDigits="0"
 Origin="Derived"
 Comment="Value of identifier variable of the parent record(s)."
 def:Label="Identifying Variable Value">
</ItemDef>
<ItemDef 
 OID="SUPPCM.QEVAL"
 Name="QEVAL"
 DataType="text"
 Length="1"
 SASFieldName="QEVAL"
 SignificantDigits="0"
 Origin="CRF or Derived"
 Comment="Evaluator for results that are subjective."
 def:Label="Evaluator">
</ItemDef>
<ItemDef 
 OID="SUPPCM.QLABEL"
 Name="QLABEL"
 DataType="text"
 Length="49"
 SASFieldName="QLABEL"
 SignificantDigits="0"
 Origin="Derived"
 Comment="The long name or label associated with QNAM."
 def:Label="Qualifier Variable Label">
</ItemDef>
<ItemDef 
 OID="SUPPCM.QNAM"
 Name="QNAM"
 DataType="text"
 Length="8"
 SASFieldName="QNAM"
 SignificantDigits="0"
 Origin="CRF Page 16,20,37,48,60,279"
 Comment="The short name of the Qualifier variable."
 def:Label="Qualifier Variable Name">
<def:ValueListRef ValueListOID="ValueList.SUPPCM.QNAM"/>
</ItemDef>
<ItemDef 
 OID="SUPPCM.QORIG"
 Name="QORIG"
 DataType="text"
 Length="50"
 SASFieldName="QORIG"
 SignificantDigits="0"
 Origin="Derived"
 Comment="Origin indicator of the data collected, derived, or assigned."
 def:Label="Origin">
</ItemDef>
<ItemDef 
 OID="SUPPCM.QVAL"
 Name="QVAL"
 DataType="text"
 Length="200"
 SASFieldName="QVAL"
 SignificantDigits="0"
 Origin="CRF or Derived"
 Comment="Result of, response to, or value associated with QNAM."
 def:Label="Data Value">
</ItemDef>
<ItemDef 
 OID="SUPPCM.RDOMAIN"
 Name="RDOMAIN"
 DataType="text"
 Length="2"
 SASFieldName="RDOMAIN"
 SignificantDigits="0"
 Origin="Assigned"
 Comment="Domain abbreviation of the parent record(s)."
 def:Label="Related Domain Abbreviation">
</ItemDef>
<ItemDef 
 OID="SUPPCM.STUDYID"
 Name="STUDYID"
 DataType="text"
 Length="8"
 SASFieldName="STUDYID"
 SignificantDigits="0"
 Origin="Protocol"
 Comment="Unique study identifier with a value of &quot;EFC6193&quot;."
 def:Label="Study Identifier">
</ItemDef>
<ItemDef 
 OID="SUPPCM.USUBJID"
 Name="USUBJID"
 DataType="text"
 Length="18"
 SASFieldName="USUBJID"
 SignificantDigits="0"
 Origin="Derived"
 Comment="Subject identification unique across all trials"
 def:Label="Unique Subject Identifier">
</ItemDef>
<ItemDef 
 OID="SUPPDM.IDVAR"
 Name="IDVAR"
 DataType="text"
 Length="5"
 SASFieldName="IDVAR"
 SignificantDigits="0"
 Origin="Derived"
 Comment="Identifier variable in the dataset that dentifies the related record(s)."
 def:Label="Identifying Variable">
</ItemDef>
<ItemDef 
 OID="SUPPDM.IDVARVAL"
 Name="IDVARVAL"
 DataType="text"
 Length="32"
 SASFieldName="IDVARVAL"
 SignificantDigits="0"
 Origin="Derived"
 Comment="Value of identifier variable of the parent record(s). "
 def:Label="Identifying Variable Value">
</ItemDef>
<ItemDef 
 OID="SUPPDM.QEVAL"
 Name="QEVAL"
 DataType="text"
 Length="1"
 SASFieldName="QEVAL"
 SignificantDigits="0"
 Origin="CRF or Derived"
 Comment="Evaluator for results that are subjective."
 def:Label="Evaluator">
</ItemDef>
<ItemDef 
 OID="SUPPDM.QLABEL"
 Name="QLABEL"
 DataType="text"
 Length="49"
 SASFieldName="QLABEL"
 SignificantDigits="0"
 Origin="Derived"
 Comment="The long name or label associated with QNAM."
 def:Label="Qualifier Variable Label">
</ItemDef>
<ItemDef 
 OID="SUPPDM.QNAM"
 Name="QNAM"
 DataType="text"
 Length="8"
 SASFieldName="QNAM"
 SignificantDigits="0"
 Origin="Derived"
 Comment="The short name of the Qualifier variable."
 def:Label="Qualifier Variable Name">
<def:ValueListRef ValueListOID="ValueList.SUPPDM.QNAM"/>
</ItemDef>
<ItemDef 
 OID="SUPPDM.QORIG"
 Name="QORIG"
 DataType="text"
 Length="50"
 SASFieldName="QORIG"
 SignificantDigits="0"
 Origin="Derived"
 Comment="Origin indicator of the data collected, derived, or assigned."
 def:Label="Origin">
</ItemDef>
<ItemDef 
 OID="SUPPDM.QVAL"
 Name="QVAL"
 DataType="text"
 Length="200"
 SASFieldName="QVAL"
 SignificantDigits="0"
 Origin="Derived"
 Comment="Result of, response to, or value associated with QNAM."
 def:Label="Data Value">
</ItemDef>
<ItemDef 
 OID="SUPPDM.RDOMAIN"
 Name="RDOMAIN"
 DataType="text"
 Length="2"
 SASFieldName="RDOMAIN"
 SignificantDigits="0"
 Origin="Assigned"
 Comment="Domain abbreviation of the parent record(s)."
 def:Label="Related Domain Abbreviation">
</ItemDef>
<ItemDef 
 OID="SUPPDM.STUDYID"
 Name="STUDYID"
 DataType="text"
 Length="8"
 SASFieldName="STUDYID"
 SignificantDigits="0"
 Origin="Protocol"
 Comment="Unique study identifier with a value of &quot;EFC6193&quot;."
 def:Label="Study Identifier">
</ItemDef>
<ItemDef 
 OID="SUPPDM.USUBJID"
 Name="USUBJID"
 DataType="text"
 Length="18"
 SASFieldName="USUBJID"
 SignificantDigits="0"
 Origin="Derived"
 Comment="Subject identification unique across all trials"
 def:Label="Unique Subject Identifier">
</ItemDef>
<ItemDef 
 OID="SUPPDS.IDVAR"
 Name="IDVAR"
 DataType="text"
 Length="5"
 SASFieldName="IDVAR"
 SignificantDigits="0"
 Origin="Derived"
 Comment="Identifier variable in the dataset that dentifies the related record(s)."
 def:Label="Identifying Variable">
</ItemDef>
<ItemDef 
 OID="SUPPDS.IDVARVAL"
 Name="IDVARVAL"
 DataType="text"
 Length="32"
 SASFieldName="IDVARVAL"
 SignificantDigits="0"
 Origin="Derived"
 Comment="Value of identifier variable of the parent record(s). "
 def:Label="Identifying Variable Value">
</ItemDef>
<ItemDef 
 OID="SUPPDS.QEVAL"
 Name="QEVAL"
 DataType="text"
 Length="1"
 SASFieldName="QEVAL"
 SignificantDigits="0"
 Origin="CRF or Derived"
 Comment="Evaluator for results that are subjective."
 def:Label="Evaluator">
</ItemDef>
<ItemDef 
 OID="SUPPDS.QLABEL"
 Name="QLABEL"
 DataType="text"
 Length="49"
 SASFieldName="QLABEL"
 SignificantDigits="0"
 Origin="Derived"
 Comment="The long name or label associated with QNAM."
 def:Label="Qualifier Variable Label">
</ItemDef>
<ItemDef 
 OID="SUPPDS.QNAM"
 Name="QNAM"
 DataType="text"
 Length="8"
 SASFieldName="QNAM"
 SignificantDigits="0"
 Origin="CRF Page 278"
 Comment="The short name of the Qualifier variable."
 def:Label="Qualifier Variable Name">
<def:ValueListRef ValueListOID="ValueList.SUPPDS.QNAM"/>
</ItemDef>
<ItemDef 
 OID="SUPPDS.QORIG"
 Name="QORIG"
 DataType="text"
 Length="50"
 SASFieldName="QORIG"
 SignificantDigits="0"
 Origin="Derived"
 Comment="Origin indicator of the data collected, derived, or assigned."
 def:Label="Origin">
</ItemDef>
<ItemDef 
 OID="SUPPDS.QVAL"
 Name="QVAL"
 DataType="text"
 Length="200"
 SASFieldName="QVAL"
 SignificantDigits="0"
 Origin="CRF"
 Comment="Result of, response to, or value associated with QNAM."
 def:Label="Data Value">
</ItemDef>
<ItemDef 
 OID="SUPPDS.RDOMAIN"
 Name="RDOMAIN"
 DataType="text"
 Length="2"
 SASFieldName="RDOMAIN"
 SignificantDigits="0"
 Origin="Assigned"
 Comment="Domain abbreviation of the parent record(s)."
 def:Label="Related Domain Abbreviation">
</ItemDef>
<ItemDef 
 OID="SUPPDS.STUDYID"
 Name="STUDYID"
 DataType="text"
 Length="8"
 SASFieldName="STUDYID"
 SignificantDigits="0"
 Origin="Protocol"
 Comment="Unique study identifier with a value of &quot;EFC6193&quot;."
 def:Label="Study Identifier">
</ItemDef>
<ItemDef 
 OID="SUPPDS.USUBJID"
 Name="USUBJID"
 DataType="text"
 Length="18"
 SASFieldName="USUBJID"
 SignificantDigits="0"
 Origin="Derived"
 Comment="Subject identification unique across all trials"
 def:Label="Unique Subject Identifier">
</ItemDef>
<ItemDef 
 OID="SUPPEG.IDVAR"
 Name="IDVAR"
 DataType="text"
 Length="5"
 SASFieldName="IDVAR"
 SignificantDigits="0"
 Origin="Derived"
 Comment="Identifier variable in the dataset that dentifies the related record(s)."
 def:Label="Identifying Variable">
</ItemDef>
<ItemDef 
 OID="SUPPEG.IDVARVAL"
 Name="IDVARVAL"
 DataType="text"
 Length="32"
 SASFieldName="IDVARVAL"
 SignificantDigits="0"
 Origin="Derived"
 Comment="Value of identifier variable of the parent record(s). "
 def:Label="Identifying Variable Value">
</ItemDef>
<ItemDef 
 OID="SUPPEG.QEVAL"
 Name="QEVAL"
 DataType="text"
 Length="1"
 SASFieldName="QEVAL"
 SignificantDigits="0"
 Origin="CRF or Derived"
 Comment="Evaluator for results that are subjective."
 def:Label="Evaluator">
</ItemDef>
<ItemDef 
 OID="SUPPEG.QLABEL"
 Name="QLABEL"
 DataType="text"
 Length="49"
 SASFieldName="QLABEL"
 SignificantDigits="0"
 Origin="Derived"
 Comment="The long name or label associated with QNAM."
 def:Label="Qualifier Variable Label">
</ItemDef>
<ItemDef 
 OID="SUPPEG.QNAM"
 Name="QNAM"
 DataType="text"
 Length="8"
 SASFieldName="QNAM"
 SignificantDigits="0"
 Origin="CRF Page 28"
 Comment="The short name of the Qualifier variable."
 def:Label="Qualifier Variable Name">
<def:ValueListRef ValueListOID="ValueList.SUPPEG.QNAM"/>
</ItemDef>
<ItemDef 
 OID="SUPPEG.QORIG"
 Name="QORIG"
 DataType="text"
 Length="50"
 SASFieldName="QORIG"
 SignificantDigits="0"
 Origin="Derived"
 Comment="Origin indicator of the data collected, derived, or assigned."
 def:Label="Origin">
</ItemDef>
<ItemDef 
 OID="SUPPEG.QVAL"
 Name="QVAL"
 DataType="text"
 Length="200"
 SASFieldName="QVAL"
 SignificantDigits="0"
 Origin="CRF"
 Comment="Result of, response to, or value associated with QNAM."
 def:Label="Data Value">
</ItemDef>
<ItemDef 
 OID="SUPPEG.RDOMAIN"
 Name="RDOMAIN"
 DataType="text"
 Length="2"
 SASFieldName="RDOMAIN"
 SignificantDigits="0"
 Origin="Assigned"
 Comment="Domain abbreviation of the parent record(s)."
 def:Label="Related Domain Abbreviation">
</ItemDef>
<ItemDef 
 OID="SUPPEG.STUDYID"
 Name="STUDYID"
 DataType="text"
 Length="8"
 SASFieldName="STUDYID"
 SignificantDigits="0"
 Origin="Protocol"
 Comment="Unique study identifier with a value of &quot;EFC6193&quot;."
 def:Label="Study Identifier">
</ItemDef>
<ItemDef 
 OID="SUPPEG.USUBJID"
 Name="USUBJID"
 DataType="text"
 Length="18"
 SASFieldName="USUBJID"
 SignificantDigits="0"
 Origin="Derived"
 Comment="Subject identification unique across all trials"
 def:Label="Unique Subject Identifier">
</ItemDef>
<ItemDef 
 OID="SUPPEX.IDVAR"
 Name="IDVAR"
 DataType="text"
 Length="5"
 SASFieldName="IDVAR"
 SignificantDigits="0"
 Origin="Derived"
 Comment="Identifier variable in the dataset that dentifies the related record(s)."
 def:Label="Identifying Variable">
</ItemDef>
<ItemDef 
 OID="SUPPEX.IDVARVAL"
 Name="IDVARVAL"
 DataType="text"
 Length="32"
 SASFieldName="IDVARVAL"
 SignificantDigits="0"
 Origin="Derived"
 Comment="Value of identifier variable of the parent record(s). "
 def:Label="Identifying Variable Value">
</ItemDef>
<ItemDef 
 OID="SUPPEX.QEVAL"
 Name="QEVAL"
 DataType="text"
 Length="1"
 SASFieldName="QEVAL"
 SignificantDigits="0"
 Origin="CRF or Derived"
 Comment="Evaluator for results that are subjective."
 def:Label="Evaluator">
</ItemDef>
<ItemDef 
 OID="SUPPEX.QLABEL"
 Name="QLABEL"
 DataType="text"
 Length="49"
 SASFieldName="QLABEL"
 SignificantDigits="0"
 Origin="Derived"
 Comment="The long name or label associated with QNAM."
 def:Label="Qualifier Variable Label">
</ItemDef>
<ItemDef 
 OID="SUPPEX.QNAM"
 Name="QNAM"
 DataType="text"
 Length="8"
 SASFieldName="QNAM"
 SignificantDigits="0"
 Origin="CRF Page 49"
 Comment="The short name of the Qualifier variable."
 def:Label="Qualifier Variable Name">
<def:ValueListRef ValueListOID="ValueList.SUPPEX.QNAM"/>
</ItemDef>
<ItemDef 
 OID="SUPPEX.QORIG"
 Name="QORIG"
 DataType="text"
 Length="50"
 SASFieldName="QORIG"
 SignificantDigits="0"
 Origin="Derived"
 Comment="Origin indicator of the data collected, derived, or assigned."
 def:Label="Origin">
</ItemDef>
<ItemDef 
 OID="SUPPEX.QVAL"
 Name="QVAL"
 DataType="text"
 Length="200"
 SASFieldName="QVAL"
 SignificantDigits="0"
 Origin="CRF or Derived"
 Comment="Result of, response to, or value associated with QNAM."
 def:Label="Data Value">
</ItemDef>
<ItemDef 
 OID="SUPPEX.RDOMAIN"
 Name="RDOMAIN"
 DataType="text"
 Length="2"
 SASFieldName="RDOMAIN"
 SignificantDigits="0"
 Origin="Assigned"
 Comment="Domain abbreviation of the parent record(s)."
 def:Label="Related Domain Abbreviation">
</ItemDef>
<ItemDef 
 OID="SUPPEX.STUDYID"
 Name="STUDYID"
 DataType="text"
 Length="8"
 SASFieldName="STUDYID"
 SignificantDigits="0"
 Origin="Protocol"
 Comment="Unique study identifier with a value of &quot;EFC6193&quot;."
 def:Label="Study Identifier">
</ItemDef>
<ItemDef 
 OID="SUPPEX.USUBJID"
 Name="USUBJID"
 DataType="text"
 Length="18"
 SASFieldName="USUBJID"
 SignificantDigits="0"
 Origin="Derived"
 Comment="Subject identification unique across all trials"
 def:Label="Unique Subject Identifier">
</ItemDef>
<ItemDef 
 OID="SUPPIE.IDVAR"
 Name="IDVAR"
 DataType="text"
 Length="5"
 SASFieldName="IDVAR"
 SignificantDigits="0"
 Origin="Derived"
 Comment="Identifier variable in the dataset that dentifies the related record(s)."
 def:Label="Identifying Variable">
</ItemDef>
<ItemDef 
 OID="SUPPIE.IDVARVAL"
 Name="IDVARVAL"
 DataType="text"
 Length="32"
 SASFieldName="IDVARVAL"
 SignificantDigits="0"
 Origin="Derived"
 Comment="Value of identifier variable of the parent record(s). "
 def:Label="Identifying Variable Value">
</ItemDef>
<ItemDef 
 OID="SUPPIE.QEVAL"
 Name="QEVAL"
 DataType="text"
 Length="1"
 SASFieldName="QEVAL"
 SignificantDigits="0"
 Origin="CRF or Derived"
 Comment="Evaluator for results that are subjective."
 def:Label="Evaluator">
</ItemDef>
<ItemDef 
 OID="SUPPIE.QLABEL"
 Name="QLABEL"
 DataType="text"
 Length="49"
 SASFieldName="QLABEL"
 SignificantDigits="0"
 Origin="Derived"
 Comment="The long name or label associated with QNAM."
 def:Label="Qualifier Variable Label">
</ItemDef>
<ItemDef 
 OID="SUPPIE.QNAM"
 Name="QNAM"
 DataType="text"
 Length="8"
 SASFieldName="QNAM"
 SignificantDigits="0"
 Origin="CRF Page 39,40,41,42"
 Comment="The short name of the Qualifier variable."
 def:Label="Qualifier Variable Name">
<def:ValueListRef ValueListOID="ValueList.SUPPIE.QNAM"/>
</ItemDef>
<ItemDef 
 OID="SUPPIE.QORIG"
 Name="QORIG"
 DataType="text"
 Length="50"
 SASFieldName="QORIG"
 SignificantDigits="0"
 Origin="Derived"
 Comment="Origin indicator of the data collected, derived, or assigned."
 def:Label="Origin">
</ItemDef>
<ItemDef 
 OID="SUPPIE.QVAL"
 Name="QVAL"
 DataType="text"
 Length="200"
 SASFieldName="QVAL"
 SignificantDigits="0"
 Origin="CRF"
 Comment="Result of, response to, or value associated with QNAM."
 def:Label="Data Value">
</ItemDef>
<ItemDef 
 OID="SUPPIE.RDOMAIN"
 Name="RDOMAIN"
 DataType="text"
 Length="2"
 SASFieldName="RDOMAIN"
 SignificantDigits="0"
 Origin="Assigned"
 Comment="Domain abbreviation of the parent record(s)."
 def:Label="Related Domain Abbreviation">
</ItemDef>
<ItemDef 
 OID="SUPPIE.STUDYID"
 Name="STUDYID"
 DataType="text"
 Length="8"
 SASFieldName="STUDYID"
 SignificantDigits="0"
 Origin="Protocol"
 Comment="Unique study identifier with a value of &quot;EFC6193&quot;."
 def:Label="Study Identifier">
</ItemDef>
<ItemDef 
 OID="SUPPIE.USUBJID"
 Name="USUBJID"
 DataType="text"
 Length="18"
 SASFieldName="USUBJID"
 SignificantDigits="0"
 Origin="Derived"
 Comment="Subject identification unique across all trials"
 def:Label="Unique Subject Identifier">
</ItemDef>
<ItemDef 
 OID="SUPPLB.IDVAR"
 Name="IDVAR"
 DataType="text"
 Length="5"
 SASFieldName="IDVAR"
 SignificantDigits="0"
 Origin="Derived"
 Comment="Identifier variable in the dataset that dentifies the related record(s)."
 def:Label="Identifying Variable">
</ItemDef>
<ItemDef 
 OID="SUPPLB.IDVARVAL"
 Name="IDVARVAL"
 DataType="text"
 Length="32"
 SASFieldName="IDVARVAL"
 SignificantDigits="0"
 Origin="Derived"
 Comment="Value of identifier variable of the parent record(s). "
 def:Label="Identifying Variable Value">
</ItemDef>
<ItemDef 
 OID="SUPPLB.QEVAL"
 Name="QEVAL"
 DataType="text"
 Length="1"
 SASFieldName="QEVAL"
 SignificantDigits="0"
 Origin="CRF or Derived"
 Comment="Evaluator for results that are subjective."
 def:Label="Evaluator">
</ItemDef>
<ItemDef 
 OID="SUPPLB.QLABEL"
 Name="QLABEL"
 DataType="text"
 Length="49"
 SASFieldName="QLABEL"
 SignificantDigits="0"
 Origin="Derived"
 Comment="The long name or label associated with QNAM."
 def:Label="Qualifier Variable Label">
</ItemDef>
<ItemDef 
 OID="SUPPLB.QNAM"
 Name="QNAM"
 DataType="text"
 Length="8"
 SASFieldName="QNAM"
 SignificantDigits="0"
 Origin="Derived"
 Comment="The short name of the Qualifier variable."
 def:Label="Qualifier Variable Name">
<def:ValueListRef ValueListOID="ValueList.SUPPLB.QNAM"/>
</ItemDef>
<ItemDef 
 OID="SUPPLB.QORIG"
 Name="QORIG"
 DataType="text"
 Length="50"
 SASFieldName="QORIG"
 SignificantDigits="0"
 Origin="Derived"
 Comment="Origin indicator of the data collected, derived, or assigned."
 def:Label="Origin">
</ItemDef>
<ItemDef 
 OID="SUPPLB.QVAL"
 Name="QVAL"
 DataType="text"
 Length="200"
 SASFieldName="QVAL"
 SignificantDigits="0"
 Origin="Derived"
 Comment="Result of, response to, or value associated with QNAM."
 def:Label="Data Value">
</ItemDef>
<ItemDef 
 OID="SUPPLB.RDOMAIN"
 Name="RDOMAIN"
 DataType="text"
 Length="2"
 SASFieldName="RDOMAIN"
 SignificantDigits="0"
 Origin="Assigned"
 Comment="Domain abbreviation of the parent record(s)."
 def:Label="Related Domain Abbreviation">
</ItemDef>
<ItemDef 
 OID="SUPPLB.STUDYID"
 Name="STUDYID"
 DataType="text"
 Length="8"
 SASFieldName="STUDYID"
 SignificantDigits="0"
 Origin="Protocol"
 Comment="Unique study identifier with a value of &quot;EFC6193&quot;."
 def:Label="Study Identifier">
</ItemDef>
<ItemDef 
 OID="SUPPLB.USUBJID"
 Name="USUBJID"
 DataType="text"
 Length="18"
 SASFieldName="USUBJID"
 SignificantDigits="0"
 Origin="Derived"
 Comment="Subject identification unique across all trials"
 def:Label="Unique Subject Identifier">
</ItemDef>
<ItemDef 
 OID="SUPPLS.IDVAR"
 Name="IDVAR"
 DataType="text"
 Length="5"
 SASFieldName="IDVAR"
 SignificantDigits="0"
 Origin="Derived"
 Comment="Identifier variable in the dataset that dentifies the related record(s)."
 def:Label="Identifying Variable">
</ItemDef>
<ItemDef 
 OID="SUPPLS.IDVARVAL"
 Name="IDVARVAL"
 DataType="text"
 Length="32"
 SASFieldName="IDVARVAL"
 SignificantDigits="0"
 Origin="Derived"
 Comment="Value of identifier variable of the parent record(s). "
 def:Label="Identifying Variable Value">
</ItemDef>
<ItemDef 
 OID="SUPPLS.QEVAL"
 Name="QEVAL"
 DataType="text"
 Length="1"
 SASFieldName="QEVAL"
 SignificantDigits="0"
 Origin="CRF or Derived"
 Comment="Evaluator for results that are subjective."
 def:Label="Evaluator">
</ItemDef>
<ItemDef 
 OID="SUPPLS.QLABEL"
 Name="QLABEL"
 DataType="text"
 Length="49"
 SASFieldName="QLABEL"
 SignificantDigits="0"
 Origin="Derived"
 Comment="The long name or label associated with QNAM."
 def:Label="Qualifier Variable Label">
</ItemDef>
<ItemDef 
 OID="SUPPLS.QNAM"
 Name="QNAM"
 DataType="text"
 Length="8"
 SASFieldName="QNAM"
 SignificantDigits="0"
 Origin="CRF Page 33"
 Comment="The short name of the Qualifier variable."
 def:Label="Qualifier Variable Name">
<def:ValueListRef ValueListOID="ValueList.SUPPLS.QNAM"/>
</ItemDef>
<ItemDef 
 OID="SUPPLS.QORIG"
 Name="QORIG"
 DataType="text"
 Length="50"
 SASFieldName="QORIG"
 SignificantDigits="0"
 Origin="Derived"
 Comment="Origin indicator of the data collected, derived, or assigned."
 def:Label="Origin">
</ItemDef>
<ItemDef 
 OID="SUPPLS.QVAL"
 Name="QVAL"
 DataType="text"
 Length="200"
 SASFieldName="QVAL"
 SignificantDigits="0"
 Origin="CRF"
 Comment="Result of, response to, or value associated with QNAM."
 def:Label="Data Value">
</ItemDef>
<ItemDef 
 OID="SUPPLS.RDOMAIN"
 Name="RDOMAIN"
 DataType="text"
 Length="2"
 SASFieldName="RDOMAIN"
 SignificantDigits="0"
 Origin="Assigned"
 Comment="Domain abbreviation of the parent record(s)."
 def:Label="Related Domain Abbreviation">
</ItemDef>
<ItemDef 
 OID="SUPPLS.STUDYID"
 Name="STUDYID"
 DataType="text"
 Length="8"
 SASFieldName="STUDYID"
 SignificantDigits="0"
 Origin="Protocol"
 Comment="Unique study identifier with a value of &quot;EFC6193&quot;."
 def:Label="Study Identifier">
</ItemDef>
<ItemDef 
 OID="SUPPLS.USUBJID"
 Name="USUBJID"
 DataType="text"
 Length="18"
 SASFieldName="USUBJID"
 SignificantDigits="0"
 Origin="Derived"
 Comment="Subject identification unique across all trials"
 def:Label="Unique Subject Identifier">
</ItemDef>
<ItemDef 
 OID="SUPPMH.IDVAR"
 Name="IDVAR"
 DataType="text"
 Length="5"
 SASFieldName="IDVAR"
 SignificantDigits="0"
 Origin="Derived"
 Comment="Identifier variable in the dataset that dentifies the related record(s)."
 def:Label="Identifying Variable">
</ItemDef>
<ItemDef 
 OID="SUPPMH.IDVARVAL"
 Name="IDVARVAL"
 DataType="text"
 Length="32"
 SASFieldName="IDVARVAL"
 SignificantDigits="0"
 Origin="Derived"
 Comment="Value of identifier variable of the parent record(s). "
 def:Label="Identifying Variable Value">
</ItemDef>
<ItemDef 
 OID="SUPPMH.QEVAL"
 Name="QEVAL"
 DataType="text"
 Length="1"
 SASFieldName="QEVAL"
 SignificantDigits="0"
 Origin="CRF or Derived"
 Comment="Evaluator for results that are subjective."
 def:Label="Evaluator">
</ItemDef>
<ItemDef 
 OID="SUPPMH.QLABEL"
 Name="QLABEL"
 DataType="text"
 Length="49"
 SASFieldName="QLABEL"
 SignificantDigits="0"
 Origin="Derived"
 Comment="The long name or label associated with QNAM."
 def:Label="Qualifier Variable Label">
</ItemDef>
<ItemDef 
 OID="SUPPMH.QNAM"
 Name="QNAM"
 DataType="text"
 Length="8"
 SASFieldName="QNAM"
 SignificantDigits="0"
 Origin="CRF Page 21"
 Comment="The short name of the Qualifier variable."
 def:Label="Qualifier Variable Name">
<def:ValueListRef ValueListOID="ValueList.SUPPMH.QNAM"/>
</ItemDef>
<ItemDef 
 OID="SUPPMH.QORIG"
 Name="QORIG"
 DataType="text"
 Length="50"
 SASFieldName="QORIG"
 SignificantDigits="0"
 Origin="Derived"
 Comment="Origin indicator of the data collected, derived, or assigned."
 def:Label="Origin">
</ItemDef>
<ItemDef 
 OID="SUPPMH.QVAL"
 Name="QVAL"
 DataType="text"
 Length="200"
 SASFieldName="QVAL"
 SignificantDigits="0"
 Origin="CRF"
 Comment="Result of, response to, or value associated with QNAM."
 def:Label="Data Value">
</ItemDef>
<ItemDef 
 OID="SUPPMH.RDOMAIN"
 Name="RDOMAIN"
 DataType="text"
 Length="2"
 SASFieldName="RDOMAIN"
 SignificantDigits="0"
 Origin="Assigned"
 Comment="Domain abbreviation of the parent record(s)."
 def:Label="Related Domain Abbreviation">
</ItemDef>
<ItemDef 
 OID="SUPPMH.STUDYID"
 Name="STUDYID"
 DataType="text"
 Length="8"
 SASFieldName="STUDYID"
 SignificantDigits="0"
 Origin="Protocol"
 Comment="Unique study identifier with a value of &quot;EFC6193&quot;."
 def:Label="Study Identifier">
</ItemDef>
<ItemDef 
 OID="SUPPMH.USUBJID"
 Name="USUBJID"
 DataType="text"
 Length="18"
 SASFieldName="USUBJID"
 SignificantDigits="0"
 Origin="Derived"
 Comment="Subject identification unique across all trials"
 def:Label="Unique Subject Identifier">
</ItemDef>
<ItemDef 
 OID="SUPPPE.IDVAR"
 Name="IDVAR"
 DataType="text"
 Length="5"
 SASFieldName="IDVAR"
 SignificantDigits="0"
 Origin="Derived"
 Comment="Identifier variable in the dataset that dentifies the related record(s)."
 def:Label="Identifying Variable">
</ItemDef>
<ItemDef 
 OID="SUPPPE.IDVARVAL"
 Name="IDVARVAL"
 DataType="text"
 Length="32"
 SASFieldName="IDVARVAL"
 SignificantDigits="0"
 Origin="Derived"
 Comment="Value of identifier variable of the parent record(s). "
 def:Label="Identifying Variable Value">
</ItemDef>
<ItemDef 
 OID="SUPPPE.QEVAL"
 Name="QEVAL"
 DataType="text"
 Length="1"
 SASFieldName="QEVAL"
 SignificantDigits="0"
 Origin="CRF or Derived"
 Comment="Evaluator for results that are subjective."
 def:Label="Evaluator">
</ItemDef>
<ItemDef 
 OID="SUPPPE.QLABEL"
 Name="QLABEL"
 DataType="text"
 Length="49"
 SASFieldName="QLABEL"
 SignificantDigits="0"
 Origin="Derived"
 Comment="The long name or label associated with QNAM."
 def:Label="Qualifier Variable Label">
</ItemDef>
<ItemDef 
 OID="SUPPPE.QNAM"
 Name="QNAM"
 DataType="text"
 Length="8"
 SASFieldName="QNAM"
 SignificantDigits="0"
 Origin="CRF Page 31"
 Comment="The short name of the Qualifier variable."
 def:Label="Qualifier Variable Name">
<def:ValueListRef ValueListOID="ValueList.SUPPPE.QNAM"/>
</ItemDef>
<ItemDef 
 OID="SUPPPE.QORIG"
 Name="QORIG"
 DataType="text"
 Length="50"
 SASFieldName="QORIG"
 SignificantDigits="0"
 Origin="Derived"
 Comment="Origin indicator of the data collected, derived, or assigned."
 def:Label="Origin">
</ItemDef>
<ItemDef 
 OID="SUPPPE.QVAL"
 Name="QVAL"
 DataType="text"
 Length="200"
 SASFieldName="QVAL"
 SignificantDigits="0"
 Origin="CRF"
 Comment="Result of, response to, or value associated with QNAM."
 def:Label="Data Value">
</ItemDef>
<ItemDef 
 OID="SUPPPE.RDOMAIN"
 Name="RDOMAIN"
 DataType="text"
 Length="2"
 SASFieldName="RDOMAIN"
 SignificantDigits="0"
 Origin="Assigned"
 Comment="Domain abbreviation of the parent record(s)."
 def:Label="Related Domain Abbreviation">
</ItemDef>
<ItemDef 
 OID="SUPPPE.STUDYID"
 Name="STUDYID"
 DataType="text"
 Length="8"
 SASFieldName="STUDYID"
 SignificantDigits="0"
 Origin="Protocol"
 Comment="Unique study identifier with a value of &quot;EFC6193&quot;."
 def:Label="Study Identifier">
</ItemDef>
<ItemDef 
 OID="SUPPPE.USUBJID"
 Name="USUBJID"
 DataType="text"
 Length="18"
 SASFieldName="USUBJID"
 SignificantDigits="0"
 Origin="Derived"
 Comment="Subject identification unique across all trials"
 def:Label="Unique Subject Identifier">
</ItemDef>
<ItemDef 
 OID="SUPPPR.IDVAR"
 Name="IDVAR"
 DataType="text"
 Length="5"
 SASFieldName="IDVAR"
 SignificantDigits="0"
 Origin="Derived"
 Comment="Identifier variable in the dataset that dentifies the related record(s)."
 def:Label="Identifying Variable">
</ItemDef>
<ItemDef 
 OID="SUPPPR.IDVARVAL"
 Name="IDVARVAL"
 DataType="text"
 Length="32"
 SASFieldName="IDVARVAL"
 SignificantDigits="0"
 Origin="Derived"
 Comment="Value of identifier variable of the parent record(s)."
 def:Label="Identifying Variable Value">
</ItemDef>
<ItemDef 
 OID="SUPPPR.QEVAL"
 Name="QEVAL"
 DataType="text"
 Length="1"
 SASFieldName="QEVAL"
 SignificantDigits="0"
 Origin="CRF or Derived"
 Comment="Evaluator for results that are subjective."
 def:Label="Evaluator">
</ItemDef>
<ItemDef 
 OID="SUPPPR.QLABEL"
 Name="QLABEL"
 DataType="text"
 Length="49"
 SASFieldName="QLABEL"
 SignificantDigits="0"
 Origin="Derived"
 Comment="The long name or label associated with QNAM."
 def:Label="Qualifier Variable Label">
</ItemDef>
<ItemDef 
 OID="SUPPPR.QNAM"
 Name="QNAM"
 DataType="text"
 Length="8"
 SASFieldName="QNAM"
 SignificantDigits="0"
 Origin="CRF Page 511"
 Comment="The short name of the Qualifier variable."
 def:Label="Qualifier Variable Name">
<def:ValueListRef ValueListOID="ValueList.SUPPPR.QNAM"/>
</ItemDef>
<ItemDef 
 OID="SUPPPR.QORIG"
 Name="QORIG"
 DataType="text"
 Length="50"
 SASFieldName="QORIG"
 SignificantDigits="0"
 Origin="Derived"
 Comment="Origin indicator of the data collected, derived, or assigned."
 def:Label="Origin">
</ItemDef>
<ItemDef 
 OID="SUPPPR.QVAL"
 Name="QVAL"
 DataType="text"
 Length="200"
 SASFieldName="QVAL"
 SignificantDigits="0"
 Origin="CRF"
 Comment="Result of, response to, or value associated with QNAM."
 def:Label="Data Value">
</ItemDef>
<ItemDef 
 OID="SUPPPR.RDOMAIN"
 Name="RDOMAIN"
 DataType="text"
 Length="2"
 SASFieldName="RDOMAIN"
 SignificantDigits="0"
 Origin="Assigned"
 Comment="Domain abbreviation of the parent record(s)."
 def:Label="Related Domain Abbreviation">
</ItemDef>
<ItemDef 
 OID="SUPPPR.STUDYID"
 Name="STUDYID"
 DataType="text"
 Length="8"
 SASFieldName="STUDYID"
 SignificantDigits="0"
 Origin="Protocol"
 Comment="Unique study identifier with a value of &quot;EFC6193&quot;."
 def:Label="Study Identifier">
</ItemDef>
<ItemDef 
 OID="SUPPPR.USUBJID"
 Name="USUBJID"
 DataType="text"
 Length="18"
 SASFieldName="USUBJID"
 SignificantDigits="0"
 Origin="Derived"
 Comment="Subject identification unique across all trials"
 def:Label="Unique Subject Identifier">
</ItemDef>
<ItemDef 
 OID="SV.DOMAIN"
 Name="DOMAIN"
 DataType="text"
 Length="2"
 SASFieldName="DOMAIN"
 SignificantDigits="0"
 Origin="Assigned"
 Comment="Two character code. SV."
 def:Label="Domain Abbreviation">
</ItemDef>
<ItemDef 
 OID="SV.STUDYID"
 Name="STUDYID"
 DataType="text"
 Length="8"
 SASFieldName="STUDYID"
 SignificantDigits="0"
 Origin="Protocol"
 Comment="Unique study identifier with a value of &quot;EFC6193&quot;."
 def:Label="Study Identifier">
</ItemDef>
<ItemDef 
 OID="SV.SVENDTC"
 Name="SVENDTC"
 DataType="text"
 Length="19"
 SASFieldName="SVENDTC"
 SignificantDigits="0"
 Origin="Derived"
 Comment="Visit end date (ISO 8601 format). All null."
 def:Label="End Date/Time of Visit">
</ItemDef>
<ItemDef 
 OID="SV.SVSTDTC"
 Name="SVSTDTC"
 DataType="text"
 Length="19"
 SASFieldName="SVSTDTC"
 SignificantDigits="0"
 Origin="CRF Page 12,43"
 Comment="Visit date (ISO 8601 format)."
 def:Label="Start Date/Time of Visit">
</ItemDef>
<ItemDef 
 OID="SV.SVSTDY"
 Name="SVSTDY"
 DataType="integer"
 Length="8"
 SASFieldName="SVSTDY"
 SignificantDigits="0"
 Origin="Derived"
 Comment="Derived from the subject visit start date and reference start date. Calculated as (date part of SVSTDTC - DM.RFSTDT) + 1, if the subject visit start date is on or after the reference start date. Otherwise, if the subject visit start date is prior to the reference start date, then calculated as (date part of SVSTDTC - DM.RFSTDT).  See Note 2"
 def:Label="Study Day of Start of Observation">
</ItemDef>
<ItemDef 
 OID="SV.USUBJID"
 Name="USUBJID"
 DataType="text"
 Length="18"
 SASFieldName="USUBJID"
 SignificantDigits="0"
 Origin="Derived"
 Comment="Subject identification unique across all trials"
 def:Label="Unique Subject Identifier">
</ItemDef>
<ItemDef 
 OID="SV.VISIT"
 Name="VISIT"
 DataType="text"
 Length="50"
 SASFieldName="VISIT"
 SignificantDigits="0"
 Origin="Derived"
 Comment=" See Note 1"
 def:Label="Visit Name">
</ItemDef>
<ItemDef 
 OID="SV.VISITNUM"
 Name="VISITNUM"
 DataType="integer"
 Length="8"
 SASFieldName="VISITNUM"
 SignificantDigits="0"
 Origin="Derived"
 Comment=" See Note 1"
 def:Label="Visit Number">
</ItemDef>
<ItemDef 
 OID="TE.DOMAIN"
 Name="DOMAIN"
 DataType="text"
 Length="2"
 SASFieldName="DOMAIN"
 SignificantDigits="0"
 Origin="Assigned"
 Comment="Two character code. TE."
 def:Label="Domain Abbreviation">
</ItemDef>
<ItemDef 
 OID="TE.ELEMENT"
 Name="ELEMENT"
 DataType="text"
 Length="50"
 SASFieldName="ELEMENT"
 SignificantDigits="0"
 Origin="Derived"
 Comment="The name of the Element."
 def:Label="Description of Element">
</ItemDef>
<ItemDef 
 OID="TE.ETCD"
 Name="ETCD"
 DataType="text"
 Length="8"
 SASFieldName="ETCD"
 SignificantDigits="0"
 Origin="Derived"
 Comment="Short name for Element."
 def:Label="Element Code">
</ItemDef>
<ItemDef 
 OID="TE.STUDYID"
 Name="STUDYID"
 DataType="text"
 Length="8"
 SASFieldName="STUDYID"
 SignificantDigits="0"
 Origin="Protocol"
 Comment="Unique study identifier with a value of &quot;EFC6193&quot;."
 def:Label="Study Identifier">
</ItemDef>
<ItemDef 
 OID="TE.TEENRL"
 Name="TEENRL"
 DataType="text"
 Length="200"
 SASFieldName="TEENRL"
 SignificantDigits="0"
 Origin="Derived"
 Comment="Expresses rule for end of the Element."
 def:Label="Rule for End of Element">
</ItemDef>
<ItemDef 
 OID="TE.TESTRL"
 Name="TESTRL"
 DataType="text"
 Length="200"
 SASFieldName="TESTRL"
 SignificantDigits="0"
 Origin="Derived"
 Comment="Expresses rule for beginning of the Element."
 def:Label="Rule for Start of Element">
</ItemDef>
<ItemDef 
 OID="TI.DOMAIN"
 Name="DOMAIN"
 DataType="text"
 Length="2"
 SASFieldName="DOMAIN"
 SignificantDigits="0"
 Origin="Assigned"
 Comment="Two character code. TI."
 def:Label="Domain Abbreviation">
</ItemDef>
<ItemDef 
 OID="TI.IECAT"
 Name="IECAT"
 DataType="text"
 Length="50"
 SASFieldName="IECAT"
 SignificantDigits="0"
 Origin="Derived"
 Comment="Defines category of related records."
 def:Label="Inclusion/Exclusion Category">
<CodeListRef CodeListOID="TI.IECAT.IECAT"/>
</ItemDef>
<ItemDef 
 OID="TI.IETEST"
 Name="IETEST"
 DataType="text"
 Length="200"
 SASFieldName="IETEST"
 SignificantDigits="0"
 Origin="CRF Page 39,40,41,42"
 Comment="Verbatim description of the inclusion and exclusion criterion. See Note 10"
 def:Label="Inclusion/Exclusion Criterion">
</ItemDef>
<ItemDef 
 OID="TI.IETESTCD"
 Name="IETESTCD"
 DataType="text"
 Length="8"
 SASFieldName="IETESTCD"
 SignificantDigits="0"
 Origin="CRF Page 39,40,41,42"
 Comment="Short name of the criterion described in IETEST. It is prefixed by I (for inclusion) and E (for exclusion) then followed by the line numbers pre-printed on the CRF pages."
 def:Label="Inclusion/Exclusion Criterion Short Name">
<CodeListRef CodeListOID="TI.IETESTCD.IETEST"/>
</ItemDef>
<ItemDef 
 OID="TI.STUDYID"
 Name="STUDYID"
 DataType="text"
 Length="8"
 SASFieldName="STUDYID"
 SignificantDigits="0"
 Origin="Protocol"
 Comment="Unique study identifier with a value of &quot;EFC6193&quot;."
 def:Label="Study Identifier">
</ItemDef>
<ItemDef 
 OID="TS.DOMAIN"
 Name="DOMAIN"
 DataType="text"
 Length="2"
 SASFieldName="DOMAIN"
 SignificantDigits="0"
 Origin="Assigned"
 Comment="Two character code. TS."
 def:Label="Domain Abbreviation">
</ItemDef>
<ItemDef 
 OID="TS.STUDYID"
 Name="STUDYID"
 DataType="text"
 Length="8"
 SASFieldName="STUDYID"
 SignificantDigits="0"
 Origin="Protocol"
 Comment="Unique study identifier with a value of &quot;EFC6193&quot;."
 def:Label="Study Identifier">
</ItemDef>
<ItemDef 
 OID="TS.TSPARM"
 Name="TSPARM"
 DataType="text"
 Length="40"
 SASFieldName="TSPARM"
 SignificantDigits="0"
 Origin="Derived"
 Comment="Term for the Trial Summary Parameter."
 def:Label="Trial Summary Parameter">
</ItemDef>
<ItemDef 
 OID="TS.TSPARMCD"
 Name="TSPARMCD"
 DataType="text"
 Length="8"
 SASFieldName="TSPARMCD"
 SignificantDigits="0"
 Origin="Derived"
 Comment="Short name of TSPARM (Trial Summary Parameter)."
 def:Label="Trial Summary Parameter Short Name">
<CodeListRef CodeListOID="TS.TSPARMCD.TSPARM"/>
</ItemDef>
<ItemDef 
 OID="TS.TSSEQ"
 Name="TSSEQ"
 DataType="integer"
 Length="8"
 SASFieldName="TSSEQ"
 SignificantDigits="0"
 Origin="Derived"
 Comment="Sequence number given to ensure uniqueness of records within TS."
 def:Label="Sequence Number">
</ItemDef>
<ItemDef 
 OID="TS.TSVAL"
 Name="TSVAL"
 DataType="text"
 Length="200"
 SASFieldName="TSVAL"
 SignificantDigits="0"
 Origin="Protocol"
 Comment="Value of TSPARM."
 def:Label="Parameter Value">
</ItemDef>
<ItemDef 
 OID="TV.ARMCD"
 Name="ARMCD"
 DataType="text"
 Length="50"
 SASFieldName="ARMCD"
 SignificantDigits="0"
 Origin="Derived"
 Comment="Since the timing of visits are not dependant on which ARM a subject is in, ARMCD is equal to null. "
 def:Label="Arm Code">
</ItemDef>
<ItemDef 
 OID="TV.DOMAIN"
 Name="DOMAIN"
 DataType="text"
 Length="2"
 SASFieldName="DOMAIN"
 SignificantDigits="0"
 Origin="Assigned"
 Comment="Two character code. TV."
 def:Label="Domain Abbreviation">
</ItemDef>
<ItemDef 
 OID="TV.STUDYID"
 Name="STUDYID"
 DataType="text"
 Length="8"
 SASFieldName="STUDYID"
 SignificantDigits="0"
 Origin="Protocol"
 Comment="Unique study identifier with a value of &quot;EFC6193&quot;."
 def:Label="Study Identifier">
</ItemDef>
<ItemDef 
 OID="TV.TVENRL"
 Name="TVENRL"
 DataType="text"
 Length="200"
 SASFieldName="TVENRL"
 SignificantDigits="0"
 Origin="Derived"
 Comment="Rule describing when the Visit would theoretically end."
 def:Label="Visit End Rule">
</ItemDef>
<ItemDef 
 OID="TV.TVSTRL"
 Name="TVSTRL"
 DataType="text"
 Length="200"
 SASFieldName="TVSTRL"
 SignificantDigits="0"
 Origin="Derived"
 Comment="Rule describing when the Visit starts."
 def:Label="Visit Start Rule">
</ItemDef>
<ItemDef 
 OID="TV.VISIT"
 Name="VISIT"
 DataType="text"
 Length="50"
 SASFieldName="VISIT"
 SignificantDigits="0"
 Origin="Derived"
 Comment=" See Note 1"
 def:Label="Visit Name">
</ItemDef>
<ItemDef 
 OID="TV.VISITNUM"
 Name="VISITNUM"
 DataType="integer"
 Length="8"
 SASFieldName="VISITNUM"
 SignificantDigits="0"
 Origin="Derived"
 Comment=" See Note 1"
 def:Label="Visit Number">
</ItemDef>
<ItemDef 
 OID="VS.DOMAIN"
 Name="DOMAIN"
 DataType="text"
 Length="2"
 SASFieldName="DOMAIN"
 SignificantDigits="0"
 Origin="Assigned"
 Comment="Two character code. VS."
 def:Label="Domain Abbreviation">
</ItemDef>
<ItemDef 
 OID="VS.STUDYID"
 Name="STUDYID"
 DataType="text"
 Length="8"
 SASFieldName="STUDYID"
 SignificantDigits="0"
 Origin="Protocol"
 Comment="Unique study identifier with a value of &quot;EFC6193&quot;."
 def:Label="Study Identifier">
</ItemDef>
<ItemDef 
 OID="VS.USUBJID"
 Name="USUBJID"
 DataType="text"
 Length="18"
 SASFieldName="USUBJID"
 SignificantDigits="0"
 Origin="Derived"
 Comment="Subject identification unique across all trials"
 def:Label="Unique Subject Identifier">
</ItemDef>
<ItemDef 
 OID="VS.VISIT"
 Name="VISIT"
 DataType="text"
 Length="50"
 SASFieldName="VISIT"
 SignificantDigits="0"
 Origin="Derived"
 Comment=" See Note 1"
 def:Label="Visit Name">
</ItemDef>
<ItemDef 
 OID="VS.VISITNUM"
 Name="VISITNUM"
 DataType="integer"
 Length="8"
 SASFieldName="VISITNUM"
 SignificantDigits="0"
 Origin="Derived"
 Comment=" See Note 1"
 def:Label="Visit Number">
</ItemDef>
<ItemDef 
 OID="VS.VSBLFL"
 Name="VSBLFL"
 DataType="text"
 Length="1"
 SASFieldName="VSBLFL"
 SignificantDigits="0"
 Origin="Derived"
 Comment="Set equal to &quot;Y&quot; I if the test assessment is the last non-missing before first dose. Missing otherwise."
 def:Label="Baseline Flag">
<CodeListRef CodeListOID="VS.VSBLFL.VSBLFL"/>
</ItemDef>
<ItemDef 
 OID="VS.VSDRVFL"
 Name="VSDRVFL"
 DataType="text"
 Length="1"
 SASFieldName="VSDRVFL"
 SignificantDigits="0"
 Origin="Derived"
 Comment="Set equal to &apos;Y&apos; when VSTESTCD=&apos;BSA&apos; or &apos;BMI&apos;."
 def:Label="Derived Flag">
<CodeListRef CodeListOID="VS.VSDRVFL.VSDRVFL"/>
</ItemDef>
<ItemDef 
 OID="VS.VSDTC"
 Name="VSDTC"
 DataType="text"
 Length="19"
 SASFieldName="VSDTC"
 SignificantDigits="0"
 Origin="CRF Page 27"
 Comment="Vital signs measurement date (ISO 8601 format)."
 def:Label="Date/Time of Measurements">
</ItemDef>
<ItemDef 
 OID="VS.VSDY"
 Name="VSDY"
 DataType="integer"
 Length="8"
 SASFieldName="VSDY"
 SignificantDigits="0"
 Origin="Derived"
 Comment="Derived from the vital signs test date and reference start date. Calculated as (date part of VSDTC - DM.RFSTDT) + 1, if the vital signs test date is on or after the reference start date. Otherwise, if the vital signs test date is prior to the reference start date, then calculated as (date part of VSDTC - DM.RFSTDT).  See Note 2"
 def:Label="Study day of Vital Signs">
</ItemDef>
<ItemDef 
 OID="VS.VSMETHOD"
 Name="VSMETHOD"
 DataType="text"
 Length="50"
 SASFieldName="VSMETHOD"
 SignificantDigits="0"
 Origin="CRF Page 27"
 Comment=" See Note 5"
 def:Label="Method of Test or Examination">
<CodeListRef CodeListOID="VS.VSMETHOD.VSMETHOD"/>
</ItemDef>
<ItemDef 
 OID="VS.VSORRES"
 Name="VSORRES"
 DataType="text"
 Length="20"
 SASFieldName="VSORRES"
 SignificantDigits="0"
 Origin="CRF Page 27"
 Comment="CRF values for all but BSA and BMI. BMI=10000*(weight / height**2). BSA=SQRT(weight*height/3600)."
 def:Label="Result or Finding in Original Units">
</ItemDef>
<ItemDef 
 OID="VS.VSORRESU"
 Name="VSORRESU"
 DataType="text"
 Length="20"
 SASFieldName="VSORRESU"
 SignificantDigits="0"
 Origin="CRF Page 27"
 Comment=" See Note 5"
 def:Label="Original Units">
</ItemDef>
<ItemDef 
 OID="VS.VSSEQ"
 Name="VSSEQ"
 DataType="integer"
 Length="8"
 SASFieldName="VSSEQ"
 SignificantDigits="0"
 Origin="Derived"
 Comment="Derived: a unique incremental sequence number, beginning with 1 and adding 1, for each unique occurrence of a subject, visit, vital signs test and vital signs date record."
 def:Label="Sequence Number">
</ItemDef>
<ItemDef 
 OID="VS.VSSTRESC"
 Name="VSSTRESC"
 DataType="text"
 Length="20"
 SASFieldName="VSSTRESC"
 SignificantDigits="0"
 Origin="Derived"
 Comment="Set equal to VSORRES apart from BMI and BSA. For BMI and BSA this is the character representation of the derived numeric value VSSTRESN."
 def:Label="Character Result/Finding in Std Format">
</ItemDef>
<ItemDef 
 OID="VS.VSSTRESN"
 Name="VSSTRESN"
 DataType="float"
 Length="8"
 SASFieldName="VSSTRESN"
 SignificantDigits="2"
 Origin="Derived"
 Comment="Numeric representation of VSORRES for all values apart from BSA and BMI. The values for BMI and BSA were derived as numeric."
 def:Label="Numeric Result/Finding in Standard Units">
</ItemDef>
<ItemDef 
 OID="VS.VSSTRESU"
 Name="VSSTRESU"
 DataType="text"
 Length="20"
 SASFieldName="VSSTRESU"
 SignificantDigits="0"
 Origin="Derived"
 Comment="Set equal to VSORRESU for all values apart from BSA and BMI. The values for BMI and BSA were derived as standard units."
 def:Label="Standard Units">
</ItemDef>
<ItemDef 
 OID="VS.VSTEST"
 Name="VSTEST"
 DataType="text"
 Length="40"
 SASFieldName="VSTEST"
 SignificantDigits="0"
 Origin="CRF Page 27"
 Comment=" See Note 5"
 def:Label="Vital Signs Test Name">
</ItemDef>
<ItemDef 
 OID="VS.VSTESTCD"
 Name="VSTESTCD"
 DataType="text"
 Length="8"
 SASFieldName="VSTESTCD"
 SignificantDigits="0"
 Origin="Derived"
 Comment="Short version of VSTEST. See Note 5"
 def:Label="Vital Signs Test Short Name">
<CodeListRef CodeListOID="VS.VSTESTCD.VSTEST"/>
</ItemDef>
<ItemDef 
 OID="SUPPAE.QNAM.AECOLGR"
 Name="AECOLGR"
 DataType="text"
 length="200"
 SignificantDigits="0"
 Origin="CRF"
 Comment="The CRF allows for Grades 1-4. Fatal outcome AEs with Grade 4 CRF classification were re-classified as Grade 5. This variable contains the original value prior to recoding of fatal Grade 4 AEs. There is one subject (USUBJID = &apos;006193-158-003-002&apos;) that had a grade 5 in the raw database for a fatal AE with AETERM=&apos;DEATH-DIEASE PROGRESSION NOS&apos;. Possible values are missing or:&quot;GRADE 1&quot;,&quot;GRADE 2&quot;,&quot;GRADE 3&quot;,&quot;GRADE 4&quot;,&quot;GRADE 5&quot;. "
 def:Label="Standard Toxicity Grade as Collected">
<CodeListRef CodeListOID="SUPPAE.AECOLGR.QVAL"/>
</ItemDef>
<ItemDef 
 OID="SUPPAE.QNAM.AECOLGRN"
 Name="AECOLGRN"
 DataType="integer"
 length="200"
 SignificantDigits="0"
 Origin="Derived"
 Comment="Numeric representation of AECOLGR."
 def:Label="Standard Toxicity Grade Numeric Code as ">
<CodeListRef CodeListOID="SUPPAE.AECOLGRN.QVAL"/>
</ItemDef>
<ItemDef 
 OID="SUPPAE.QNAM.AEDICTVS"
 Name="AEDICTVS"
 DataType="text"
 length="200"
 SignificantDigits="0"
 Origin="Derived"
 Comment="Value is MedDRA 12.0."
 def:Label="AE Dictionary Version">
<CodeListRef CodeListOID="SUPPAE.AEDICTVS.QVAL"/>
</ItemDef>
<ItemDef 
 OID="SUPPAE.QNAM.AEDTHDTC"
 Name="AEDTHDTC"
 DataType="text"
 length="200"
 SignificantDigits="0"
 Origin="CRF"
 Comment="Death date in ISO 8601 format."
 def:Label="Date/Time of Death">
</ItemDef>
<ItemDef 
 OID="SUPPAE.QNAM.AEHLGT"
 Name="AEHLGT"
 DataType="text"
 length="200"
 SignificantDigits="0"
 Origin="Derived"
 Comment="From MedDRA 12.0 dictionary."
 def:Label="High Level Group Term">
</ItemDef>
<ItemDef 
 OID="SUPPAE.QNAM.AEHLT"
 Name="AEHLT"
 DataType="text"
 length="200"
 SignificantDigits="0"
 Origin="Derived"
 Comment="From MedDRA 12.0 dictionary."
 def:Label="High Level Term">
</ItemDef>
<ItemDef 
 OID="SUPPAE.QNAM.AELLT"
 Name="AELLT"
 DataType="text"
 length="200"
 SignificantDigits="0"
 Origin="Derived"
 Comment="From MedDRA 12.0 dictionary. "
 def:Label="Lowest Level Term">
</ItemDef>
<ItemDef 
 OID="SUPPAE.QNAM.AEOVISIT"
 Name="AEOVISIT"
 DataType="text"
 length="200"
 SignificantDigits="0"
 Origin="Derived"
 Comment="This is the original visit collected. It differs from the variable VISIT for unscheduled visits where it was possible to reassign to the actual cycle for VISIT based on the visit date in the SV domain.  See Note 1"
 def:Label="Original Visit Name">
</ItemDef>
<ItemDef 
 OID="SUPPAE.QNAM.AEREFER"
 Name="AEREFER"
 DataType="text"
 length="200"
 SignificantDigits="0"
 Origin="Derived"
 Comment="AE initial ref. number."
 def:Label="AE Reference number">
</ItemDef>
<ItemDef 
 OID="SUPPAE.QNAM.AESEQUCM"
 Name="AESEQUCM"
 DataType="text"
 length="200"
 SignificantDigits="0"
 Origin="CRF"
 Comment=""
 def:Label="Specify Sequelae">
</ItemDef>
<ItemDef 
 OID="SUPPAE.QNAM.AETOXGRN"
 Name="AETOXGRN"
 DataType="integer"
 length="200"
 SignificantDigits="0"
 Origin="Derived"
 Comment="Numeric representation of AETOXGR. "
 def:Label="Standard Toxicity Grade Numeric Code">
<CodeListRef CodeListOID="SUPPAE.AETOXGRN.QVAL"/>
</ItemDef>
<ItemDef 
 OID="SUPPAE.QNAM.AETRTEM"
 Name="AETRTEM"
 DataType="text"
 length="200"
 SignificantDigits="0"
 Origin="Derived"
 Comment="N: Pre-treatment,T: Treatment emergent,P: Post-treatment.  If visit is baseline visit (Visitnum = 1), then it is &quot;Pre-Treatment&quot;. If visit is between visit 1 and visit 80, then it is &quot;Treatment Emergent&quot;. if the visit is after visit 80, then it &quot;Post-Treatment.&quot;"
 def:Label="Treatment Emergent Classification">
<CodeListRef CodeListOID="SUPPAE.AETRTEM.QVAL"/>
</ItemDef>
<ItemDef 
 OID="SUPPCM.QNAM.CMATCL1"
 Name="CMATCL1"
 DataType="text"
 length="200"
 SignificantDigits="0"
 Origin="Derived"
 Comment="Dictionary-derived variable."
 def:Label="Selected Anatomic Class">
</ItemDef>
<ItemDef 
 OID="SUPPCM.QNAM.CMATCL2"
 Name="CMATCL2"
 DataType="text"
 length="200"
 SignificantDigits="0"
 Origin="Derived"
 Comment="Dictionary-derived variable. "
 def:Label="Selected Therapeutic Class">
</ItemDef>
<ItemDef 
 OID="SUPPCM.QNAM.CMATCSEL"
 Name="CMATCSEL"
 DataType="text"
 length="200"
 SignificantDigits="0"
 Origin="Derived"
 Comment="Dictionary-derived variable."
 def:Label="Selected ATC Code">
</ItemDef>
<ItemDef 
 OID="SUPPCM.QNAM.CMENDRCM"
 Name="CMENDRCM"
 DataType="text"
 length="200"
 SignificantDigits="0"
 Origin="CRF"
 Comment=""
 def:Label="Other Reason">
</ItemDef>
<ItemDef 
 OID="SUPPCM.QNAM.CMLOC"
 Name="CMLOC"
 DataType="text"
 length="200"
 SignificantDigits="0"
 Origin="CRF"
 Comment=""
 def:Label="Location of Dose Administration">
<CodeListRef CodeListOID="SUPPCM.CMLOC.QVAL"/>
</ItemDef>
<ItemDef 
 OID="SUPPCM.QNAM.CMONGB"
 Name="CMONGB"
 DataType="text"
 length="200"
 SignificantDigits="0"
 Origin="CRF"
 Comment=""
 def:Label="Ongoing from Baseline">
<CodeListRef CodeListOID="SUPPCM.CMONGB.QVAL"/>
</ItemDef>
<ItemDef 
 OID="SUPPCM.QNAM.CMONGO"
 Name="CMONGO"
 DataType="text"
 length="200"
 SignificantDigits="0"
 Origin="CRF"
 Comment=""
 def:Label="After First Study Treatment">
<CodeListRef CodeListOID="SUPPCM.CMONGO.QVAL"/>
</ItemDef>
<ItemDef 
 OID="SUPPCM.QNAM.CMPRGDTC"
 Name="CMPRGDTC"
 DataType="text"
 length="200"
 SignificantDigits="0"
 Origin="CRF"
 Comment=""
 def:Label="Start Date/Time of Progression">
</ItemDef>
<ItemDef 
 OID="SUPPCM.QNAM.CMRLTL"
 Name="CMRLTL"
 DataType="text"
 length="200"
 SignificantDigits="0"
 Origin="CRF"
 Comment=""
 def:Label="Best Response">
<CodeListRef CodeListOID="SUPPCM.CMRLTL.QVAL"/>
</ItemDef>
<ItemDef 
 OID="SUPPCM.QNAM.CMRSON"
 Name="CMRSON"
 DataType="text"
 length="200"
 SignificantDigits="0"
 Origin="CRF"
 Comment=""
 def:Label="Reason for Discontinuation (Char)">
<CodeListRef CodeListOID="SUPPCM.CMRSON.QVAL"/>
</ItemDef>
<ItemDef 
 OID="SUPPCM.QNAM.ENDTCOL"
 Name="ENDTCOL"
 DataType="text"
 length="200"
 SignificantDigits="0"
 Origin="CRF"
 Comment="This is the collected end date/time when it is less than start date/time."
 def:Label="Collected End Date/Time of Medication">
</ItemDef>
<ItemDef 
 OID="SUPPDM.QNAM.ARM2"
 Name="ARM2"
 DataType="text"
 length="200"
 SignificantDigits="0"
 Origin="Derived"
 Comment="If a subject was randomized but never treated, the value of ARM is &quot;NOT ASSIGNED&quot; and the value of ARM2 is the original planned arm. This is to comply with SDTM IG 3.1.1.  See Note 9"
 def:Label="Original Description of Planned Arm">
<CodeListRef CodeListOID="SUPPDM.ARM2.QVAL"/>
</ItemDef>
<ItemDef 
 OID="SUPPDM.QNAM.ARMA"
 Name="ARMA"
 DataType="text"
 length="200"
 SignificantDigits="0"
 Origin="Derived"
 Comment="Recieved treatment arm. Possible values are: &quot;MITOXANTRONE/PREDNISONE&quot;, &quot;XRP6258/PREDNISONE&quot;."
 def:Label="Description of Actually Received Arm">
<CodeListRef CodeListOID="SUPPDM.ARMA.QVAL"/>
</ItemDef>
<ItemDef 
 OID="SUPPDM.QNAM.ARMCD2"
 Name="ARMCD2"
 DataType="text"
 length="200"
 SignificantDigits="0"
 Origin="Derived"
 Comment="If a subject was randomized but never treated, the value of ARMCD is &quot;NOTASSGN&quot; and the value of ARMCD2 is the original planned arm code. This is to comply with SDTM IG 3.1.1. See Note 9"
 def:Label="Original Planned Arm Code">
<CodeListRef CodeListOID="SUPPDM.ARMCD2.QVAL"/>
</ItemDef>
<ItemDef 
 OID="SUPPDM.QNAM.BSABL"
 Name="BSABL"
 DataType="float"
 length="200"
 SignificantDigits="2"
 Origin="Derived"
 Comment="Body Surface Area at baseline. It is calculated as: BSABL=sqrt(height*weight)/3600). Note, weight in the formula refers to baseline weight. However, if weight at baseline is missing, then weight at visit 1 is used instead."
 def:Label="Baseline Body Surface Area (m2)">
</ItemDef>
<ItemDef 
 OID="SUPPDM.QNAM.ITT"
 Name="ITT"
 DataType="text"
 length="200"
 SignificantDigits="0"
 Origin="Derived"
 Comment="Derived: if the subject was randomized then value is &quot;Y&quot;. Otherwise &quot;N&quot;. "
 def:Label="Intent-to-treat Population">
<CodeListRef CodeListOID="SUPPDM.ITT.QVAL"/>
</ItemDef>
<ItemDef 
 OID="SUPPDM.QNAM.PPROT"
 Name="PPROT"
 DataType="text"
 length="200"
 SignificantDigits="0"
 Origin="Derived"
 Comment="Set equal to the safety population."
 def:Label="Per Protocol Population">
<CodeListRef CodeListOID="SUPPDM.PPROT.QVAL"/>
</ItemDef>
<ItemDef 
 OID="SUPPDM.QNAM.SAFETY"
 Name="SAFETY"
 DataType="text"
 length="200"
 SignificantDigits="0"
 Origin="Derived"
 Comment="Derived: if the subject received any study treatment then the value is &quot;Y&quot;. Otherwise &quot;N&quot;. "
 def:Label="Safety Population">
<CodeListRef CodeListOID="SUPPDM.SAFETY.QVAL"/>
</ItemDef>
<ItemDef 
 OID="SUPPDS.QNAM.DSPROG"
 Name="DSPROG"
 DataType="text"
 length="200"
 SignificantDigits="0"
 Origin="CRF"
 Comment=""
 def:Label="Progression">
<CodeListRef CodeListOID="SUPPDS.DSPROG.QVAL"/>
</ItemDef>
<ItemDef 
 OID="SUPPEG.QNAM.EGORRES2"
 Name="EGORRES2"
 DataType="text"
 length="200"
 SignificantDigits="0"
 Origin="CRF"
 Comment=""
 def:Label="ECG abnormal - Specify">
</ItemDef>
<ItemDef 
 OID="SUPPEX.QNAM.ENDTCOL"
 Name="ENDTCOL"
 DataType="text"
 length="200"
 SignificantDigits="0"
 Origin="CRF"
 Comment="This is the collected end date/time when it is less than start date/time. "
 def:Label="Collected End Date/Time of Treatment">
</ItemDef>
<ItemDef 
 OID="SUPPEX.QNAM.EXCUMD"
 Name="EXCUMD"
 DataType="float"
 Length="10"
 SignificantDigits="0"
 Origin="Derived"
 Comment="Derived: the cumulative dose received for each subject across all visits. EXCUMD equals the CRF total dose given variable, EXDOSE, at the subjects first treatment visit. For each subsequent treatment visit, the value of EXCUMD is incremented by the value of the CRF total dose given variable, EXDOSE. For a subjects last treatment visit record, the EXCUMD value will be equal to the total dose received for that subject during the study."
 def:Label="Cumulative Dose">
</ItemDef>
<ItemDef 
 OID="SUPPEX.QNAM.EXCUMD2"
 Name="EXCUMD2"
 DataType="float"
 length="200"
 SignificantDigits="10"
 Origin="Derived"
 Comment="Derived: the cumulative dose received for each subject across all visits. EXCUMD2 equals the calculated dose, EXDOSE2, at the subjects first treatment visit. For each subsequent treatment visit, the value of EXCUMD2 is incremented by the value of the calculated dose, EXDOSE2. For a subjects last treatment visit record, the EXCUMD2 value will be equal to the total calculated dose received for that subject during the study."
 def:Label="Cumulative Dose in mg/m2">
</ItemDef>
<ItemDef 
 OID="SUPPEX.QNAM.EXDELAY"
 Name="EXDELAY"
 DataType="integer"
 length="200"
 SignificantDigits="0"
 Origin="Derived"
 Comment="Derived as the days elasped between treatment cycles. The days elapsed is the difference between the current cycles start date and the previous cycles theoretical end date. For a subjects first treatment cycle, the treatment delay value will be set equal to zero. Calculated as (date part of EXSTDTC - previous cycles theoretical end date). "
 def:Label="Number of Days Treatment Delayed">
</ItemDef>
<ItemDef 
 OID="SUPPEX.QNAM.EXDOSE2"
 Name="EXDOSE2"
 DataType="float"
 length="200"
 SignificantDigits="1"
 Origin="Derived"
 Comment="Relative dose calculated as EXDOSE/BSA. BSA is in dataset VS where VSTESTCD=&quot;BSA&quot;."
 def:Label="Dose per Administration Per BSA">
</ItemDef>
<ItemDef 
 OID="SUPPEX.QNAM.EXDSRCM"
 Name="EXDSRCM"
 DataType="text"
 length="200"
 SignificantDigits="0"
 Origin="CRF"
 Comment=""
 def:Label="Reason for Delay/Reduc./Inter. Specify">
</ItemDef>
<ItemDef 
 OID="SUPPEX.QNAM.EXDSREA"
 Name="EXDSREA"
 DataType="text"
 length="200"
 SignificantDigits="0"
 Origin="CRF"
 Comment=""
 def:Label="Reason for Delay/Reduction/Interruption">
<CodeListRef CodeListOID="SUPPEX.EXDSREA.QVAL"/>
</ItemDef>
<ItemDef 
 OID="SUPPEX.QNAM.EXPDOSE"
 Name="EXPDOSE"
 DataType="integer"
 length="200"
 SignificantDigits="0"
 Origin="CRF"
 Comment=""
 def:Label="Planned Dose per Administration">
</ItemDef>
<ItemDef 
 OID="SUPPEX.QNAM.EXPDOSE2"
 Name="EXPDOSE2"
 DataType="float"
 length="200"
 SignificantDigits="10"
 Origin="Derived"
 Comment="Set equal to EXDOSE2*100/25 when EXTRT is equal to &apos;XRP6258&apos;;  Set equal to EXDOSE2*100/12 when EXTRT is equal to &apos;MITOXANTRONE&apos;."
 def:Label="% of Dose per Administration Per BSA">
</ItemDef>
<ItemDef 
 OID="SUPPEX.QNAM.EXPDOSU"
 Name="EXPDOSU"
 DataType="text"
 length="200"
 SignificantDigits="0"
 Origin="Derived"
 Comment="Set equal to &apos;mg/m2&apos;."
 def:Label="Planned Dose Units Per Administration">
</ItemDef>
<ItemDef 
 OID="SUPPEX.QNAM.EXTINT"
 Name="EXTINT"
 DataType="float"
 length="200"
 SignificantDigits="2"
 Origin="Derived"
 Comment="Derived: cumulative total dose in mg/m2 divided by toal duration, calculated as EXCUMD2/EXTDURN. "
 def:Label="Total Dose Intensity">
</ItemDef>
<ItemDef 
 OID="SUPPEX.QNAM.EXTRINT"
 Name="EXTRINT"
 DataType="float"
 length="200"
 SignificantDigits="2"
 Origin="Derived"
 Comment="Derived: calculated as EXTINT*3*100/12 when EXTRT equals to&apos;MITOXANTRONE&apos;; or as EXTINT*3*100/25 when EXTRT equals to &apos;XRP6258&apos;."
 def:Label="Total Dose Rel to Plan Dose Intensity">
</ItemDef>
<ItemDef 
 OID="SUPPIE.QNAM.IETEST1"
 Name="IETEST1"
 DataType="text"
 length="200"
 SignificantDigits="0"
 Origin="CRF"
 Comment="Continuation of IETEST."
 def:Label="Inclusion/Exclusion Criterion Continued">
</ItemDef>
<ItemDef 
 OID="SUPPLB.QNAM.LBOVISIT"
 Name="LBOVISIT"
 DataType="text"
 length="200"
 SignificantDigits="0"
 Origin="CRF"
 Comment="This is the original visit collected. It differs from the variable VISIT for unscheduled visits where it was possible to reassign to the actual cycle for VISIT based on the visit date in the SV domain. See Note 1"
 def:Label="Original Visit Name">
</ItemDef>
<ItemDef 
 OID="SUPPLS.QNAM.LSSLOC"
 Name="LSSLOC"
 DataType="text"
 length="200"
 SignificantDigits="0"
 Origin="CRF"
 Comment=""
 def:Label="Location of Tumor (Subcategory)">
</ItemDef>
<ItemDef 
 OID="SUPPMH.QNAM.MHPERSIS"
 Name="MHPERSIS"
 DataType="text"
 length="200"
 SignificantDigits="0"
 Origin="CRF"
 Comment=""
 def:Label="Persistence of Symptoms">
<CodeListRef CodeListOID="SUPPMH.MHPERSIS.QVAL"/>
</ItemDef>
<ItemDef 
 OID="SUPPPE.QNAM.ASMETCM"
 Name="ASMETCM"
 DataType="text"
 length="200"
 SignificantDigits="0"
 Origin="CRF"
 Comment=""
 def:Label="If Other Test Method, Specify">
</ItemDef>
<ItemDef 
 OID="SUPPPE.QNAM.ASOTHCM"
 Name="ASOTHCM"
 DataType="text"
 length="200"
 SignificantDigits="0"
 Origin="CRF"
 Comment=""
 def:Label="If Other Abnormality, Specify">
</ItemDef>
<ItemDef 
 OID="SUPPPE.QNAM.ASOTHTK"
 Name="ASOTHTK"
 DataType="text"
 length="200"
 SignificantDigits="0"
 Origin="CRF"
 Comment=""
 def:Label="Other Abnormality">
<CodeListRef CodeListOID="SUPPPE.ASOTHTK.QVAL"/>
</ItemDef>
<ItemDef 
 OID="SUPPPE.QNAM.ASTUTK"
 Name="ASTUTK"
 DataType="text"
 length="200"
 SignificantDigits="0"
 Origin="CRF"
 Comment=""
 def:Label="Tumoral-related Abnormality">
<CodeListRef CodeListOID="SUPPPE.ASTUTK.QVAL"/>
</ItemDef>
<ItemDef 
 OID="SUPPPR.QNAM.PROTHCM"
 Name="PROTHCM"
 DataType="text"
 length="200"
 SignificantDigits="0"
 Origin="CRF"
 Comment=""
 def:Label="Other Cancer - Specify">
</ItemDef>
<CodeList 
 OID="AE.AEACN.AEACN"
 Name="AE.AEACN.AEACN"
 DataType="text"
 SASFormatName="null">
<CodeListItem 
 CodedValue="DOSE DELAYED"
 def:Rank="0">
<Decode>
<TranslatedText xml:lang="en">
DOSE DELAYED
</TranslatedText>
</Decode>
</CodeListItem>
<CodeListItem 
 CodedValue="DOSE DELAYED AND REDUCED"
 def:Rank="0">
<Decode>
<TranslatedText xml:lang="en">
DOSE DELAYED AND REDUCED
</TranslatedText>
</Decode>
</CodeListItem>
<CodeListItem 
 CodedValue="DRUG WITHDRAWN"
 def:Rank="0">
<Decode>
<TranslatedText xml:lang="en">
DRUG WITHDRAWN
</TranslatedText>
</Decode>
</CodeListItem>
<CodeListItem 
 CodedValue="DOSE NOT CHANGED"
 def:Rank="0">
<Decode>
<TranslatedText xml:lang="en">
DOSE NOT CHANGED
</TranslatedText>
</Decode>
</CodeListItem>
<CodeListItem 
 CodedValue="DOSE REDUCED"
 def:Rank="0">
<Decode>
<TranslatedText xml:lang="en">
DOSE REDUCED
</TranslatedText>
</Decode>
</CodeListItem>
<CodeListItem 
 CodedValue="DOSE INTERRUPTED"
 def:Rank="0">
<Decode>
<TranslatedText xml:lang="en">
DOSE INTERRUPTED
</TranslatedText>
</Decode>
</CodeListItem>
</CodeList>
