"STUDYID" "DOMAIN" "USUBJID" "SITEID" "SUBJID" "AEGRPID" "AEREFID" "AESEQ" "AESPID" "AEYN" "AETEAE" "AETERM" "AEMODIFY" "AEDECOD" "AECAT" "AESCAT" "AEBODSYS" "AELOC" "AESEV" "AESER" "AEACN" "AEACNOTH" "AEACNX" "AEREL" "AERELNST" "AEPATT" "AEOUT" "AEDTHREL" "AESCAN" "AESCONG" "AESDISAB" "AESDTH" "AESHOSP" "AESLIFE" "AESOD" "AESMIE" "AECONTRT" "AETOXGR" "AESTDTC" "AEENDTC" "AESTDY" "AEENDY" "AEDUR" "AEENRF" "AELLTCD" "AELLT" "AEHLTCD" "AEHLT" "AEHLGTCD" "AEHLGT" "AEPTCD" "AESOC2" "AESOC3" "AESOC4" "AESOC5" "AESOC6" "AEMEDVER" "AECDSTAT" "AECLEAR" "AECODDTC" "AERECODE" "AESAEREC" "AERPTID"
"1" "C21005" "AE" "C21005-2003-3018" 2003 3018 NA NA NA 2 "Y" "Y" NA NA "Constipation" NA NA "Gastrointestinal disorders" NA NA "N" "" NA "CONCOMITANT MEDICATION ADMINISTERED" "NOT RELATED" NA NA "RECOVERED/RESOLVED" NA NA NA NA NA NA NA NA NA NA 2 "2011-07-09" "2011-07-18" 3 12 NA NA 10010774 "Constipation" 10017933 "Gastrointestinal atonic and hypomotility disorders NEC" 10017977 "Gastrointestinal motility and defaecation conditions" 10010774 NA NA NA NA NA 16 NA NA "2013-03-28" NA NA NA
"2" "C21005" "AE" "C21005-2003-3018" 2003 3018 NA NA NA 1 "Y" "Y" NA NA "Lower gastrointestinal haemorrhage" NA NA "Gastrointestinal disorders" NA NA "N" "" NA "CONCOMITANT PROCEDURE PERFORMED" "NOT RELATED" NA NA "RECOVERED/RESOLVED" NA NA NA NA NA NA NA NA NA NA 2 "2011-07-09" "2011-08-14" 3 39 NA NA 10051746 "Lower gastrointestinal hemorrhage" 10017958 "Non-site specific gastrointestinal haemorrhages" 10017959 "Gastrointestinal haemorrhages NEC" 10050953 NA NA NA NA NA 16 NA NA "2013-03-28" NA NA NA
"3" "C21005" "AE" "C21005-2003-3018" 2003 3018 NA NA NA 4 "Y" "Y" NA NA "Pyrexia" NA NA "General disorders and administration site conditions" NA NA "N" "NO ACTION TAKEN" NA "NO ACTION TAKEN" "NOT RELATED" NA NA "RECOVERED/RESOLVED" NA NA NA NA NA NA NA NA NA NA 1 "2012-02-11" "2012-02-11" 220 220 NA NA 10016558 "Fever" 10016286 "Febrile disorders" 10005908 "Body temperature conditions" 10037660 NA NA NA NA NA 16 NA NA "2013-03-28" NA NA NA
"4" "C21005" "AE" "C21005-2003-3018" 2003 3018 NA NA NA 5 "Y" "Y" NA NA "Vomiting" NA NA "Gastrointestinal disorders" NA NA "N" "NO ACTION TAKEN" NA "NO ACTION TAKEN" "NOT RELATED" NA NA "RECOVERED/RESOLVED" NA NA NA NA NA NA NA NA NA NA 1 "2012-02-11" "2012-02-15" 220 224 NA NA 10047700 "Vomiting" 10028817 "Nausea and vomiting symptoms" 10018012 "Gastrointestinal signs and symptoms" 10047700 NA NA NA NA NA 16 NA NA "2013-03-28" NA NA NA
"5" "C21005" "AE" "C21005-2003-3018" 2003 3018 NA NA NA 3 "Y" "Y" NA NA "Fatigue" NA NA "General disorders and administration site conditions" NA NA "N" "NO ACTION TAKEN" NA "NO ACTION TAKEN" "RELATED" NA NA "RECOVERED/RESOLVED" NA NA NA NA NA NA NA NA NA NA 2 "2012-02-11" "2012-06-03" 220 333 NA NA 10016256 "Fatigue" 10003550 "Asthenic conditions" 10018073 "General system disorders NEC" 10016256 NA NA NA NA NA 16 NA NA "2013-03-28" NA NA NA
