"AGEGRP"	"STUDYID"	"USUBJID"	"SUBJID"	"STRATUM1"	"STRATU1N"	"SEX"	"SEXN"	"RACE"	"RACEN"	"ARMCD"	"ARM"	"ARMN"	"ARMACD"	"ARMA"	"ARMAN"	"RANDOM"	"SAFETY"	"EXPOSED"	"ITT"	"ECOGIVRS"	"ECOGIVRN"	"ECOGCRF"	"ECOGCRFN"	"RFSTDT"	"RFSTDX"	"RFSTTM"	"RFSTTX"	"TRTSTDT"	"TRTSTDX"	"TRTENDT"	"TRTENDX"	"ACTSTRA1"	"ACTSTR1N"	"DOMAIN"	"AGEU"	"RFSTDTC"	"TRTSTTM"	"TRTSTTX"	"TRTENTM"	"TRTENTX"
"1"	"49"	"EFC6546"	"006546-032-007-601"	"032007601"	"ECOG=0 or ECOG=1"	0	"M"	1	"ASIAN/ORIENTAL"	3	"PLACEBO"	"PLACEBO"	0	"PLACEBO"	"PLACEBO"	0	"Y"	"Y"	"Y"	"Y"	"ECOG=1"	1	"ECOG=1"	1	2009-04-07	"2009-04-07"	12:55:00	"12:55"	2009-04-07	"2009-04-07"	2009-06-09	"2009-06-09"	"ECOG=0 or ECOG=1"	0	"DM"	"Years"	"2009-04-07T12:55"	14:50:00	"14:50"	NA	""
"2"	"57"	"EFC6546"	"006546-032-007-701"	"032007701"	"ECOG=0 or ECOG=1"	0	"M"	1	"ASIAN/ORIENTAL"	3	"PLACEBO"	"PLACEBO"	0	"PLACEBO"	"PLACEBO"	0	"Y"	"Y"	"Y"	"Y"	"ECOG=0"	0	"ECOG=0"	0	2009-08-04	"2009-08-04"	17:44:00	"17:44"	2009-08-05	"2009-08-05"	2010-06-14	"2010-06-14"	"ECOG=0 or ECOG=1"	0	"DM"	"Years"	"2009-08-04T17:44"	12:10:00	"12:10"	NA	""
"3"	"61"	"EFC6546"	"006546-032-007-801"	"032007801"	"ECOG=0 or ECOG=1"	0	"M"	1	"ASIAN/ORIENTAL"	3	"PLACEBO"	"PLACEBO"	0	"PLACEBO"	"PLACEBO"	0	"Y"	"Y"	"Y"	"Y"	"ECOG=1"	1	"ECOG=1"	1	2009-09-08	"2009-09-08"	13:21:00	"13:21"	2009-09-09	"2009-09-09"	2010-02-02	"2010-02-02"	"ECOG=0 or ECOG=1"	0	"DM"	"Years"	"2009-09-08T13:21"	11:40:00	"11:40"	NA	""
"4"	"80"	"EFC6546"	"006546-032-097-401"	"032097401"	""	NA	"M"	1	"ASIAN/ORIENTAL"	3	"SCRNFAIL"	"SCREEN FAILURE"	NA	"SCRNFAIL"	"SCREEN FAILURE"	NA	"N"	"N"	"N"	"N"	""	NA	""	NA	NA	""	NA	""	NA	""	NA	""	""	NA	"DM"	"Years"	""	NA	""	NA	""
"5"	"67"	"EFC6546"	"006546-032-097-501"	"032097501"	""	NA	"M"	1	"ASIAN/ORIENTAL"	3	"SCRNFAIL"	"SCREEN FAILURE"	NA	"SCRNFAIL"	"SCREEN FAILURE"	NA	"N"	"N"	"N"	"N"	""	NA	""	NA	NA	""	NA	""	NA	""	NA	""	""	NA	"DM"	"Years"	""	NA	""	NA	""
"6"	"62"	"EFC6546"	"006546-032-097-601"	"032097601"	""	NA	"M"	1	"ASIAN/ORIENTAL"	3	"SCRNFAIL"	"SCREEN FAILURE"	NA	"SCRNFAIL"	"SCREEN FAILURE"	NA	"N"	"N"	"N"	"N"	""	NA	""	NA	NA	""	NA	""	NA	""	NA	""	""	NA	"DM"	"Years"	""	NA	""	NA	""
"7"	"76"	"EFC6546"	"006546-032-097-701"	"032097701"	""	NA	"M"	1	"ASIAN/ORIENTAL"	3	"SCRNFAIL"	"SCREEN FAILURE"	NA	"SCRNFAIL"	"SCREEN FAILURE"	NA	"N"	"N"	"N"	"N"	""	NA	""	NA	NA	""	NA	""	NA	""	NA	""	""	NA	"DM"	"Years"	""	NA	""	NA	""
"8"	"73"	"EFC6546"	"006546-032-097-801"	"032097801"	""	NA	"M"	1	"ASIAN/ORIENTAL"	3	"SCRNFAIL"	"SCREEN FAILURE"	NA	"SCRNFAIL"	"SCREEN FAILURE"	NA	"N"	"N"	"N"	"N"	""	NA	""	NA	NA	""	NA	""	NA	""	NA	""	""	NA	"DM"	"Years"	""	NA	""	NA	""
"9"	"52"	"EFC6546"	"006546-033-002-401"	"033002401"	"ECOG=0 or ECOG=1"	0	"M"	1	"CAUCASIAN/WHITE"	1	"PLACEBO"	"PLACEBO"	0	"NOTASSGN"	"Not Assigned"	-1	"Y"	"N"	"N"	"Y"	"ECOG=1"	1	"ECOG=1"	1	2008-05-26	"2008-05-26"	17:07:00	"17:07"	NA	""	NA	""	"ECOG=0 or ECOG=1"	0	"DM"	"Years"	"2008-05-26T17:07"	NA	""	NA	""
"10"	"65"	"EFC6546"	"006546-033-002-501"	"033002501"	"ECOG=0 or ECOG=1"	0	"M"	1	"CAUCASIAN/WHITE"	1	"PLACEBO"	"PLACEBO"	0	"PLACEBO"	"PLACEBO"	0	"Y"	"Y"	"Y"	"Y"	"ECOG=1"	1	"ECOG=1"	1	2008-10-16	"2008-10-16"	13:51:00	"13:51"	2008-10-16	"2008-10-16"	2008-12-17	"2008-12-17"	"ECOG=0 or ECOG=1"	0	"DM"	"Years"	"2008-10-16T13:51"	14:00:00	"14:00"	NA	""
"11"	"71"	"EFC6546"	"006546-033-002-801"	"033002801"	"ECOG=0 or ECOG=1"	0	"M"	1	"CAUCASIAN/WHITE"	1	"PLACEBO"	"PLACEBO"	0	"PLACEBO"	"PLACEBO"	0	"Y"	"Y"	"Y"	"Y"	"ECOG=1"	1	"ECOG=1"	1	2009-04-10	"2009-04-10"	10:30:00	"10:30"	2009-04-10	"2009-04-10"	2010-02-22	"2010-02-22"	"ECOG=0 or ECOG=1"	0	"DM"	"Years"	"2009-04-10T10:30"	12:25:00	"12:25"	NA	""
"12"	"60"	"EFC6546"	"006546-033-002-901"	"033002901"	"ECOG=0 or ECOG=1"	0	"M"	1	"CAUCASIAN/WHITE"	1	"PLACEBO"	"PLACEBO"	0	"PLACEBO"	"PLACEBO"	0	"Y"	"Y"	"Y"	"Y"	"ECOG=1"	1	"ECOG=1"	1	2009-05-05	"2009-05-05"	09:47:00	"09:47"	2009-05-05	"2009-05-05"	2009-07-08	"2009-07-08"	"ECOG=0 or ECOG=1"	0	"DM"	"Years"	"2009-05-05T09:47"	11:50:00	"11:50"	NA	""
"13"	"67"	"EFC6546"	"006546-033-092-401"	"033092401"	""	NA	"M"	1	"CAUCASIAN/WHITE"	1	"SCRNFAIL"	"SCREEN FAILURE"	NA	"SCRNFAIL"	"SCREEN FAILURE"	NA	"N"	"N"	"N"	"N"	""	NA	""	NA	NA	""	NA	""	NA	""	NA	""	""	NA	"DM"	"Years"	""	NA	""	NA	""
"14"	"73"	"EFC6546"	"006546-033-092-501"	"033092501"	""	NA	"M"	1	"CAUCASIAN/WHITE"	1	"SCRNFAIL"	"SCREEN FAILURE"	NA	"SCRNFAIL"	"SCREEN FAILURE"	NA	"N"	"N"	"N"	"N"	""	NA	""	NA	NA	""	NA	""	NA	""	NA	""	""	NA	"DM"	"Years"	""	NA	""	NA	""
"15"	"61"	"EFC6546"	"006546-033-092-601"	"033092601"	""	NA	"M"	1	"CAUCASIAN/WHITE"	1	"SCRNFAIL"	"SCREEN FAILURE"	NA	"SCRNFAIL"	"SCREEN FAILURE"	NA	"N"	"N"	"N"	"N"	""	NA	""	NA	NA	""	NA	""	NA	""	NA	""	""	NA	"DM"	"Years"	""	NA	""	NA	""
"16"	"73"	"EFC6546"	"006546-034-008-701"	"034008701"	"ECOG=0 or ECOG=1"	0	"M"	1	"CAUCASIAN/WHITE"	1	"PLACEBO"	"PLACEBO"	0	"PLACEBO"	"PLACEBO"	0	"Y"	"Y"	"Y"	"Y"	"ECOG=1"	1	"ECOG=1"	1	2009-12-18	"2009-12-18"	18:23:00	"18:23"	2009-12-21	"2009-12-21"	2010-07-30	"2010-07-30"	"ECOG=0 or ECOG=1"	0	"DM"	"Years"	"2009-12-18T18:23"	12:55:00	"12:55"	11:40:00	"11:40"
"17"	"66"	"EFC6546"	"006546-034-098-401"	"034098401"	""	NA	"M"	1	"CAUCASIAN/WHITE"	1	"SCRNFAIL"	"SCREEN FAILURE"	NA	"SCRNFAIL"	"SCREEN FAILURE"	NA	"N"	"N"	"N"	"N"	""	NA	""	NA	NA	""	NA	""	NA	""	NA	""	""	NA	"DM"	"Years"	""	NA	""	NA	""
"18"	"77"	"EFC6546"	"006546-038-002-102"	"038002102"	"ECOG=0 or ECOG=1"	0	"M"	1	"CAUCASIAN/WHITE"	1	"PLACEBO"	"PLACEBO"	0	"PLACEBO"	"PLACEBO"	0	"Y"	"Y"	"Y"	"Y"	"ECOG=0"	0	"ECOG=0"	0	2009-06-26	"2009-06-26"	12:59:00	"12:59"	2009-06-29	"2009-06-29"	2010-02-24	"2010-02-24"	"ECOG=0 or ECOG=1"	0	"DM"	"Years"	"2009-06-26T12:59"	13:35:00	"13:35"	NA	""
"19"	"66"	"EFC6546"	"006546-038-002-401"	"038002401"	"ECOG=0 or ECOG=1"	0	"M"	1	"CAUCASIAN/WHITE"	1	"PLACEBO"	"PLACEBO"	0	"PLACEBO"	"PLACEBO"	0	"Y"	"Y"	"Y"	"Y"	"ECOG=0"	0	"ECOG=0"	0	2008-08-11	"2008-08-11"	16:44:00	"16:44"	2008-08-12	"2008-08-12"	2008-12-16	"2008-12-16"	"ECOG=0 or ECOG=1"	0	"DM"	"Years"	"2008-08-11T16:44"	12:10:00	"12:10"	NA	""
"20"	"59"	"EFC6546"	"006546-038-002-402"	"038002402"	"ECOG=0 or ECOG=1"	0	"M"	1	"CAUCASIAN/WHITE"	1	"PLACEBO"	"PLACEBO"	0	"PLACEBO"	"PLACEBO"	0	"Y"	"Y"	"Y"	"Y"	"ECOG=1"	1	"ECOG=1"	1	2010-01-05	"2010-01-05"	11:24:00	"11:24"	2010-01-06	"2010-01-06"	2010-07-21	"2010-07-21"	"ECOG=0 or ECOG=1"	0	"DM"	"Years"	"2010-01-05T11:24"	10:40:00	"10:40"	NA	""
"21"	"67"	"EFC6546"	"006546-038-002-501"	"038002501"	"ECOG=0 or ECOG=1"	0	"M"	1	"CAUCASIAN/WHITE"	1	"PLACEBO"	"PLACEBO"	0	"PLACEBO"	"PLACEBO"	0	"Y"	"Y"	"Y"	"Y"	"ECOG=1"	1	"ECOG=1"	1	2008-09-10	"2008-09-10"	14:00:00	"14:00"	2008-09-11	"2008-09-11"	2009-04-28	"2009-04-28"	"ECOG=0 or ECOG=1"	0	"DM"	"Years"	"2008-09-10T14:00"	11:40:00	"11:40"	NA	""
"22"	"68"	"EFC6546"	"006546-038-002-601"	"038002601"	"ECOG=0 or ECOG=1"	0	"M"	1	"CAUCASIAN/WHITE"	1	"PLACEBO"	"PLACEBO"	0	"PLACEBO"	"PLACEBO"	0	"Y"	"Y"	"Y"	"Y"	"ECOG=0"	0	"ECOG=0"	0	2008-11-18	"2008-11-18"	09:31:00	"09:31"	2008-11-18	"2008-11-18"	2009-07-08	"2009-07-08"	"ECOG=0 or ECOG=1"	0	"DM"	"Years"	"2008-11-18T09:31"	13:10:00	"13:10"	NA	""
"23"	"61"	"EFC6546"	"006546-038-002-701"	"038002701"	"ECOG=0 or ECOG=1"	0	"M"	1	"CAUCASIAN/WHITE"	1	"PLACEBO"	"PLACEBO"	0	"PLACEBO"	"PLACEBO"	0	"Y"	"Y"	"Y"	"Y"	"ECOG=0"	0	"ECOG=0"	0	2008-12-09	"2008-12-09"	10:44:00	"10:44"	2008-12-10	"2008-12-10"	2009-10-08	"2009-10-08"	"ECOG=0 or ECOG=1"	0	"DM"	"Years"	"2008-12-09T10:44"	11:27:00	"11:27"	NA	""
"24"	"77"	"EFC6546"	"006546-038-002-801"	"038002801"	"ECOG=0 or ECOG=1"	0	"M"	1	"CAUCASIAN/WHITE"	1	"PLACEBO"	"PLACEBO"	0	"PLACEBO"	"PLACEBO"	0	"Y"	"Y"	"Y"	"Y"	"ECOG=0"	0	"ECOG=0"	0	2009-01-06	"2009-01-06"	11:47:00	"11:47"	2009-01-07	"2009-01-07"	2009-04-02	"2009-04-02"	"ECOG=0 or ECOG=1"	0	"DM"	"Years"	"2009-01-06T11:47"	12:10:00	"12:10"	NA	""
"25"	"55"	"EFC6546"	"006546-038-002-901"	"038002901"	"ECOG=0 or ECOG=1"	0	"M"	1	"CAUCASIAN/WHITE"	1	"PLACEBO"	"PLACEBO"	0	"PLACEBO"	"PLACEBO"	0	"Y"	"Y"	"Y"	"Y"	"ECOG=0"	0	"ECOG=0"	0	2009-01-20	"2009-01-20"	12:28:00	"12:28"	2009-01-21	"2009-01-21"	2009-03-25	"2009-03-25"	"ECOG=0 or ECOG=1"	0	"DM"	"Years"	"2009-01-20T12:28"	11:55:00	"11:55"	NA	""
"26"	"65"	"EFC6546"	"006546-038-092-401"	"038092401"	""	NA	"M"	1	"CAUCASIAN/WHITE"	1	"SCRNFAIL"	"SCREEN FAILURE"	NA	"SCRNFAIL"	"SCREEN FAILURE"	NA	"N"	"N"	"N"	"N"	""	NA	""	NA	NA	""	NA	""	NA	""	NA	""	""	NA	"DM"	"Years"	""	NA	""	NA	""
"27"	"66"	"EFC6546"	"006546-042-007-401"	"042007401"	"ECOG=0 or ECOG=1"	0	"M"	1	"ASIAN/ORIENTAL"	3	"PLACEBO"	"PLACEBO"	0	"PLACEBO"	"PLACEBO"	0	"Y"	"Y"	"Y"	"Y"	"ECOG=1"	1	"ECOG=1"	1	2009-08-03	"2009-08-03"	10:34:00	"10:34"	2009-08-03	"2009-08-03"	2009-10-28	"2009-10-28"	"ECOG=0 or ECOG=1"	0	"DM"	"Years"	"2009-08-03T10:34"	11:40:00	"11:40"	NA	""
"28"	"61"	"EFC6546"	"006546-042-007-501"	"042007501"	"ECOG=0 or ECOG=1"	0	"M"	1	"ASIAN/ORIENTAL"	3	"PLACEBO"	"PLACEBO"	0	"PLACEBO"	"PLACEBO"	0	"Y"	"Y"	"Y"	"Y"	"ECOG=1"	1	"ECOG=1"	1	2009-09-23	"2009-09-23"	10:28:00	"10:28"	2009-09-23	"2009-09-23"	2010-04-21	"2010-04-21"	"ECOG=0 or ECOG=1"	0	"DM"	"Years"	"2009-09-23T10:28"	11:05:00	"11:05"	NA	""
"29"	"63"	"EFC6546"	"006546-043-002-401"	"043002401"	"ECOG=0 or ECOG=1"	0	"M"	1	"CAUCASIAN/WHITE"	1	"PLACEBO"	"PLACEBO"	0	"PLACEBO"	"PLACEBO"	0	"Y"	"Y"	"Y"	"Y"	"ECOG=1"	1	"ECOG=1"	1	2008-10-14	"2008-10-14"	18:17:00	"18:17"	2008-10-16	"2008-10-16"	2008-12-18	"2008-12-18"	"ECOG=0 or ECOG=1"	0	"DM"	"Years"	"2008-10-14T18:17"	11:15:00	"11:15"	NA	""
"30"	"54"	"EFC6546"	"006546-043-092-401"	"043092401"	""	NA	"M"	1	"CAUCASIAN/WHITE"	1	"SCRNFAIL"	"SCREEN FAILURE"	NA	"SCRNFAIL"	"SCREEN FAILURE"	NA	"N"	"N"	"N"	"N"	""	NA	""	NA	NA	""	NA	""	NA	""	NA	""	""	NA	"DM"	"Years"	""	NA	""	NA	""
"31"	"65"	"EFC6546"	"006546-048-092-401"	"048092401"	""	NA	"M"	1	"CAUCASIAN/WHITE"	1	"SCRNFAIL"	"SCREEN FAILURE"	NA	"SCRNFAIL"	"SCREEN FAILURE"	NA	"N"	"N"	"N"	"N"	""	NA	""	NA	NA	""	NA	""	NA	""	NA	""	""	NA	"DM"	"Years"	""	NA	""	NA	""
"32"	"82"	"EFC6546"	"006546-053-002-002"	"053002002"	"ECOG=0 or ECOG=1"	0	"M"	1	"CAUCASIAN/WHITE"	1	"PLACEBO"	"PLACEBO"	0	"PLACEBO"	"PLACEBO"	0	"Y"	"Y"	"Y"	"Y"	"ECOG=1"	1	"ECOG=1"	1	2010-01-05	"2010-01-05"	09:14:00	"09:14"	2010-01-07	"2010-01-07"	2010-04-22	"2010-04-22"	"ECOG=0 or ECOG=1"	0	"DM"	"Years"	"2010-01-05T09:14"	09:30:00	"09:30"	NA	""
"33"	"72"	"EFC6546"	"006546-053-002-401"	"053002401"	"ECOG=2"	1	"M"	1	"CAUCASIAN/WHITE"	1	"PLACEBO"	"PLACEBO"	0	"PLACEBO"	"PLACEBO"	0	"Y"	"Y"	"Y"	"Y"	"ECOG=2"	2	"ECOG=2"	2	2008-05-09	"2008-05-09"	08:45:00	"08:45"	2008-05-13	"2008-05-13"	2008-08-26	"2008-08-26"	"ECOG=2"	1	"DM"	"Years"	"2008-05-09T08:45"	08:00:00	"08:00"	NA	""
"34"	"60"	"EFC6546"	"006546-053-002-601"	"053002601"	"ECOG=2"	1	"M"	1	"CAUCASIAN/WHITE"	1	"PLACEBO"	"PLACEBO"	0	"PLACEBO"	"PLACEBO"	0	"Y"	"Y"	"Y"	"Y"	"ECOG=2"	2	"ECOG=2"	2	2008-05-27	"2008-05-27"	08:33:00	"08:33"	2008-05-27	"2008-05-27"	2008-09-09	"2008-09-09"	"ECOG=2"	1	"DM"	"Years"	"2008-05-27T08:33"	08:55:00	"08:55"	NA	""
"35"	"75"	"EFC6546"	"006546-053-002-901"	"053002901"	"ECOG=0 or ECOG=1"	0	"M"	1	"CAUCASIAN/WHITE"	1	"PLACEBO"	"PLACEBO"	0	"PLACEBO"	"PLACEBO"	0	"Y"	"Y"	"Y"	"Y"	"ECOG=1"	1	"ECOG=1"	1	2009-05-25	"2009-05-25"	09:08:00	"09:08"	2009-05-25	"2009-05-25"	2009-05-25	"2009-05-25"	"ECOG=0 or ECOG=1"	0	"DM"	"Years"	"2009-05-25T09:08"	11:00:00	"11:00"	NA	""
"36"	"58"	"EFC6546"	"006546-054-008-401"	"054008401"	"ECOG=0 or ECOG=1"	0	"M"	1	"CAUCASIAN/WHITE"	1	"PLACEBO"	"PLACEBO"	0	"PLACEBO"	"PLACEBO"	0	"Y"	"Y"	"Y"	"Y"	"ECOG=0"	0	"ECOG=0"	0	2009-12-08	"2009-12-08"	15:28:00	"15:28"	2009-12-09	"2009-12-09"	2010-03-04	"2010-03-04"	"ECOG=0 or ECOG=1"	0	"DM"	"Years"	"2009-12-08T15:28"	11:35:00	"11:35"	NA	""
"37"	"48"	"EFC6546"	"006546-058-002-601"	"058002601"	"ECOG=0 or ECOG=1"	0	"M"	1	"CAUCASIAN/WHITE"	1	"PLACEBO"	"PLACEBO"	0	"PLACEBO"	"PLACEBO"	0	"Y"	"Y"	"Y"	"Y"	"ECOG=0"	0	"ECOG=0"	0	2009-03-16	"2009-03-16"	14:59:00	"14:59"	2009-03-17	"2009-03-17"	2009-08-26	"2009-08-26"	"ECOG=0 or ECOG=1"	0	"DM"	"Years"	"2009-03-16T14:59"	10:30:00	"10:30"	NA	""
"38"	"65"	"EFC6546"	"006546-058-002-901"	"058002901"	"ECOG=0 or ECOG=1"	0	"M"	1	"CAUCASIAN/WHITE"	1	"PLACEBO"	"PLACEBO"	0	"PLACEBO"	"PLACEBO"	0	"Y"	"Y"	"Y"	"Y"	"ECOG=0"	0	"ECOG=0"	0	2009-11-17	"2009-11-17"	10:59:00	"10:59"	2009-11-18	"2009-11-18"	2010-06-02	"2010-06-02"	"ECOG=0 or ECOG=1"	0	"DM"	"Years"	"2009-11-17T10:59"	11:42:00	"11:42"	NA	""
"39"	"59"	"EFC6546"	"006546-063-002-501"	"063002501"	"ECOG=0 or ECOG=1"	0	"M"	1	"CAUCASIAN/WHITE"	1	"PLACEBO"	"PLACEBO"	0	"PLACEBO"	"PLACEBO"	0	"Y"	"Y"	"Y"	"Y"	"ECOG=0"	0	"ECOG=0"	0	2008-03-11	"2008-03-11"	16:47:00	"16:47"	2008-03-12	"2008-03-12"	2008-06-25	"2008-06-25"	"ECOG=0 or ECOG=1"	0	"DM"	"Years"	"2008-03-11T16:47"	09:45:00	"09:45"	NA	""
"40"	"61"	"EFC6546"	"006546-063-002-701"	"063002701"	"ECOG=0 or ECOG=1"	0	"M"	1	"CAUCASIAN/WHITE"	1	"PLACEBO"	"PLACEBO"	0	"PLACEBO"	"PLACEBO"	0	"Y"	"Y"	"Y"	"Y"	"ECOG=0"	0	"ECOG=0"	0	2010-01-20	"2010-01-20"	09:30:00	"09:30"	2010-01-20	"2010-01-20"	2011-01-12	"2011-01-12"	"ECOG=0 or ECOG=1"	0	"DM"	"Years"	"2010-01-20T09:30"	10:00:00	"10:00"	NA	""
"41"	"71"	"EFC6546"	"006546-063-092-401"	"063092401"	""	NA	"M"	1	"CAUCASIAN/WHITE"	1	"SCRNFAIL"	"SCREEN FAILURE"	NA	"SCRNFAIL"	"SCREEN FAILURE"	NA	"N"	"N"	"N"	"N"	""	NA	""	NA	NA	""	NA	""	NA	""	NA	""	""	NA	"DM"	"Years"	""	NA	""	NA	""
"42"	"75"	"EFC6546"	"006546-063-092-501"	"063092501"	""	NA	"M"	1	"CAUCASIAN/WHITE"	1	"SCRNFAIL"	"SCREEN FAILURE"	NA	"SCRNFAIL"	"SCREEN FAILURE"	NA	"N"	"N"	"N"	"N"	""	NA	""	NA	NA	""	NA	""	NA	""	NA	""	""	NA	"DM"	"Years"	""	NA	""	NA	""
"43"	"60"	"EFC6546"	"006546-064-008-102"	"064008102"	"ECOG=0 or ECOG=1"	0	"M"	1	"CAUCASIAN/WHITE"	1	"PLACEBO"	"PLACEBO"	0	"PLACEBO"	"PLACEBO"	0	"Y"	"Y"	"Y"	"Y"	"ECOG=1"	1	"ECOG=1"	1	2009-10-28	"2009-10-28"	10:36:00	"10:36"	2009-10-28	"2009-10-28"	2010-02-17	"2010-02-17"	"ECOG=0 or ECOG=1"	0	"DM"	"Years"	"2009-10-28T10:36"	10:40:00	"10:40"	NA	""
"44"	"59"	"EFC6546"	"006546-064-008-202"	"064008202"	"ECOG=0 or ECOG=1"	0	"M"	1	"CAUCASIAN/WHITE"	1	"PLACEBO"	"PLACEBO"	0	"PLACEBO"	"PLACEBO"	0	"Y"	"Y"	"Y"	"Y"	"ECOG=0"	0	"ECOG=0"	0	2009-11-03	"2009-11-03"	14:37:00	"14:37"	2009-11-03	"2009-11-03"	2010-06-23	"2010-06-23"	"ECOG=0 or ECOG=1"	0	"DM"	"Years"	"2009-11-03T14:37"	15:15:00	"15:15"	NA	""
"45"	"70"	"EFC6546"	"006546-064-008-302"	"064008302"	"ECOG=0 or ECOG=1"	0	"M"	1	"CAUCASIAN/WHITE"	1	"PLACEBO"	"PLACEBO"	0	"PLACEBO"	"PLACEBO"	0	"Y"	"Y"	"Y"	"Y"	"ECOG=1"	1	"ECOG=1"	1	2009-11-18	"2009-11-18"	10:16:00	"10:16"	2009-11-18	"2009-11-18"	2010-03-03	"2010-03-03"	"ECOG=0 or ECOG=1"	0	"DM"	"Years"	"2009-11-18T10:16"	11:05:00	"11:05"	NA	""
"46"	"62"	"EFC6546"	"006546-064-008-401"	"064008401"	"ECOG=0 or ECOG=1"	0	"M"	1	"CAUCASIAN/WHITE"	1	"PLACEBO"	"PLACEBO"	0	"PLACEBO"	"PLACEBO"	0	"Y"	"Y"	"Y"	"Y"	"ECOG=1"	1	"ECOG=1"	1	2009-09-23	"2009-09-23"	15:40:00	"15:40"	2009-09-24	"2009-09-24"	2010-01-09	"2010-01-09"	"ECOG=0 or ECOG=1"	0	"DM"	"Years"	"2009-09-23T15:40"	12:30:00	"12:30"	NA	""
"47"	"72"	"EFC6546"	"006546-064-008-402"	"064008402"	"ECOG=0 or ECOG=1"	0	"M"	1	"CAUCASIAN/WHITE"	1	"PLACEBO"	"PLACEBO"	0	"PLACEBO"	"PLACEBO"	0	"Y"	"Y"	"Y"	"Y"	"ECOG=1"	1	"ECOG=1"	1	2009-11-18	"2009-11-18"	18:33:00	"18:33"	2009-11-19	"2009-11-19"	2011-03-23	"2011-03-23"	"ECOG=0 or ECOG=1"	0	"DM"	"Years"	"2009-11-18T18:33"	11:45:00	"11:45"	NA	""
"48"	"71"	"EFC6546"	"006546-064-008-801"	"064008801"	"ECOG=0 or ECOG=1"	0	"M"	1	"CAUCASIAN/WHITE"	1	"PLACEBO"	"PLACEBO"	0	"PLACEBO"	"PLACEBO"	0	"Y"	"Y"	"Y"	"Y"	"ECOG=1"	1	"ECOG=1"	1	2009-10-13	"2009-10-13"	20:27:00	"20:27"	2009-10-14	"2009-10-14"	2010-02-17	"2010-02-17"	"ECOG=0 or ECOG=1"	0	"DM"	"Years"	"2009-10-13T20:27"	11:20:00	"11:20"	NA	""
"49"	"74"	"EFC6546"	"006546-064-008-901"	"064008901"	"ECOG=0 or ECOG=1"	0	"M"	1	"CAUCASIAN/WHITE"	1	"PLACEBO"	"PLACEBO"	0	"PLACEBO"	"PLACEBO"	0	"Y"	"Y"	"Y"	"Y"	"ECOG=1"	1	"ECOG=1"	1	2009-10-15	"2009-10-15"	13:38:00	"13:38"	2009-10-15	"2009-10-15"	2010-03-04	"2010-03-04"	"ECOG=0 or ECOG=1"	0	"DM"	"Years"	"2009-10-15T13:38"	14:05:00	"14:05"	NA	""
"50"	"56"	"EFC6546"	"006546-064-098-401"	"064098401"	""	NA	"M"	1	"CAUCASIAN/WHITE"	1	"SCRNFAIL"	"SCREEN FAILURE"	NA	"SCRNFAIL"	"SCREEN FAILURE"	NA	"N"	"N"	"N"	"N"	""	NA	""	NA	NA	""	NA	""	NA	""	NA	""	""	NA	"DM"	"Years"	""	NA	""	NA	""
"51"	"68"	"EFC6546"	"006546-074-008-401"	"074008401"	"ECOG=0 or ECOG=1"	0	"M"	1	"CAUCASIAN/WHITE"	1	"PLACEBO"	"PLACEBO"	0	"PLACEBO"	"PLACEBO"	0	"Y"	"Y"	"Y"	"Y"	"ECOG=1"	1	"ECOG=1"	1	2009-11-03	"2009-11-03"	16:32:00	"16:32"	2009-11-04	"2009-11-04"	2010-03-02	"2010-03-02"	"ECOG=0 or ECOG=1"	0	"DM"	"Years"	"2009-11-03T16:32"	13:00:00	"13:00"	NA	""
"52"	"64"	"EFC6546"	"006546-078-002-002"	"078002002"	"ECOG=0 or ECOG=1"	0	"M"	1	"CAUCASIAN/WHITE"	1	"PLACEBO"	"PLACEBO"	0	"6 MG"	"AVE0005A"	6	"Y"	"Y"	"Y"	"Y"	"ECOG=0"	0	"ECOG=0"	0	2009-12-09	"2009-12-09"	11:23:00	"11:23"	2009-12-10	"2009-12-10"	2010-05-06	"2010-05-06"	"ECOG=0 or ECOG=1"	0	"DM"	"Years"	"2009-12-09T11:23"	09:23:00	"09:23"	NA	""
"53"	"66"	"EFC6546"	"006546-078-002-102"	"078002102"	"ECOG=0 or ECOG=1"	0	"M"	1	"CAUCASIAN/WHITE"	1	"PLACEBO"	"PLACEBO"	0	"PLACEBO"	"PLACEBO"	0	"Y"	"Y"	"Y"	"Y"	"ECOG=0"	0	"ECOG=0"	0	2009-12-17	"2009-12-17"	11:24:00	"11:24"	2009-12-18	"2009-12-18"	2009-12-18	"2009-12-18"	"ECOG=0 or ECOG=1"	0	"DM"	"Years"	"2009-12-17T11:24"	09:40:00	"09:40"	NA	""
"54"	"75"	"EFC6546"	"006546-078-002-501"	"078002501"	"ECOG=0 or ECOG=1"	0	"M"	1	"CAUCASIAN/WHITE"	1	"PLACEBO"	"PLACEBO"	0	"PLACEBO"	"PLACEBO"	0	"Y"	"Y"	"Y"	"Y"	"ECOG=0"	0	"ECOG=0"	0	2009-05-26	"2009-05-26"	12:27:00	"12:27"	2009-05-28	"2009-05-28"	2010-04-15	"2010-04-15"	"ECOG=0 or ECOG=1"	0	"DM"	"Years"	"2009-05-26T12:27"	09:55:00	"09:55"	NA	""
"55"	"63"	"EFC6546"	"006546-078-002-701"	"078002701"	"ECOG=0 or ECOG=1"	0	"M"	1	"CAUCASIAN/WHITE"	1	"PLACEBO"	"PLACEBO"	0	"PLACEBO"	"PLACEBO"	0	"Y"	"Y"	"Y"	"Y"	"ECOG=0"	0	"ECOG=0"	0	2009-07-07	"2009-07-07"	13:53:00	"13:53"	2009-07-08	"2009-07-08"	2009-12-17	"2009-12-17"	"ECOG=0 or ECOG=1"	0	"DM"	"Years"	"2009-07-07T13:53"	10:05:00	"10:05"	NA	""
"56"	"79"	"EFC6546"	"006546-078-002-801"	"078002801"	"ECOG=0 or ECOG=1"	0	"M"	1	"CAUCASIAN/WHITE"	1	"PLACEBO"	"PLACEBO"	0	"PLACEBO"	"PLACEBO"	0	"Y"	"Y"	"Y"	"Y"	"ECOG=0"	0	"ECOG=0"	0	2009-07-28	"2009-07-28"	08:30:00	"08:30"	2009-07-29	"2009-07-29"	2010-02-05	"2010-02-05"	"ECOG=0 or ECOG=1"	0	"DM"	"Years"	"2009-07-28T08:30"	09:04:00	"09:04"	NA	""
"57"	"60"	"EFC6546"	"006546-078-092-401"	"078092401"	""	NA	"M"	1	"CAUCASIAN/WHITE"	1	"SCRNFAIL"	"SCREEN FAILURE"	NA	"SCRNFAIL"	"SCREEN FAILURE"	NA	"N"	"N"	"N"	"N"	""	NA	""	NA	NA	""	NA	""	NA	""	NA	""	""	NA	"DM"	"Years"	""	NA	""	NA	""
"58"	"66"	"EFC6546"	"006546-078-092-501"	"078092501"	""	NA	"M"	1	"CAUCASIAN/WHITE"	1	"SCRNFAIL"	"SCREEN FAILURE"	NA	"SCRNFAIL"	"SCREEN FAILURE"	NA	"N"	"N"	"N"	"N"	""	NA	""	NA	NA	""	NA	""	NA	""	NA	""	""	NA	"DM"	"Years"	""	NA	""	NA	""
"59"	"72"	"EFC6546"	"006546-078-092-601"	"078092601"	""	NA	"M"	1	"CAUCASIAN/WHITE"	1	"SCRNFAIL"	"SCREEN FAILURE"	NA	"SCRNFAIL"	"SCREEN FAILURE"	NA	"N"	"N"	"N"	"N"	""	NA	""	NA	NA	""	NA	""	NA	""	NA	""	""	NA	"DM"	"Years"	""	NA	""	NA	""
"60"	"78"	"EFC6546"	"006546-078-092-701"	"078092701"	""	NA	"M"	1	"CAUCASIAN/WHITE"	1	"SCRNFAIL"	"SCREEN FAILURE"	NA	"SCRNFAIL"	"SCREEN FAILURE"	NA	"N"	"N"	"N"	"N"	""	NA	""	NA	NA	""	NA	""	NA	""	NA	""	""	NA	"DM"	"Years"	""	NA	""	NA	""
"61"	"71"	"EFC6546"	"006546-084-008-002"	"084008002"	"ECOG=0 or ECOG=1"	0	"M"	1	"CAUCASIAN/WHITE"	1	"PLACEBO"	"PLACEBO"	0	"PLACEBO"	"PLACEBO"	0	"Y"	"Y"	"Y"	"Y"	"ECOG=1"	1	"ECOG=1"	1	2010-01-27	"2010-01-27"	17:08:00	"17:08"	2010-01-27	"2010-01-27"	2010-04-21	"2010-04-21"	"ECOG=0 or ECOG=1"	0	"DM"	"Years"	"2010-01-27T17:08"	17:50:00	"17:50"	NA	""
"62"	"73"	"EFC6546"	"006546-084-008-501"	"084008501"	"ECOG=2"	1	"M"	1	"CAUCASIAN/WHITE"	1	"PLACEBO"	"PLACEBO"	0	"PLACEBO"	"PLACEBO"	0	"Y"	"Y"	"Y"	"Y"	"ECOG=2"	2	"ECOG=2"	2	2009-11-06	"2009-11-06"	13:57:00	"13:57"	2009-11-06	"2009-11-06"	2009-11-06	"2009-11-06"	"ECOG=2"	1	"DM"	"Years"	"2009-11-06T13:57"	15:05:00	"15:05"	NA	""
"63"	"77"	"EFC6546"	"006546-084-008-701"	"084008701"	"ECOG=0 or ECOG=1"	0	"M"	1	"CAUCASIAN/WHITE"	1	"PLACEBO"	"PLACEBO"	0	"PLACEBO"	"PLACEBO"	0	"Y"	"Y"	"Y"	"Y"	"ECOG=1"	1	"ECOG=1"	1	2009-12-01	"2009-12-01"	11:35:00	"11:35"	2009-12-01	"2009-12-01"	2010-06-30	"2010-06-30"	"ECOG=0 or ECOG=1"	0	"DM"	"Years"	"2009-12-01T11:35"	15:40:00	"15:40"	NA	""
"64"	"71"	"EFC6546"	"006546-084-008-901"	"084008901"	"ECOG=2"	1	"M"	1	"CAUCASIAN/WHITE"	1	"PLACEBO"	"PLACEBO"	0	"PLACEBO"	"PLACEBO"	0	"Y"	"Y"	"Y"	"Y"	"ECOG=2"	2	"ECOG=2"	2	2010-01-25	"2010-01-25"	11:51:00	"11:51"	2010-01-25	"2010-01-25"	2010-10-29	"2010-10-29"	"ECOG=2"	1	"DM"	"Years"	"2010-01-25T11:51"	12:20:00	"12:20"	NA	""
"65"	"70"	"EFC6546"	"006546-094-008-401"	"094008401"	"ECOG=0 or ECOG=1"	0	"M"	1	"CAUCASIAN/WHITE"	1	"PLACEBO"	"PLACEBO"	0	"PLACEBO"	"PLACEBO"	0	"Y"	"Y"	"Y"	"Y"	"ECOG=0"	0	"ECOG=0"	0	2009-10-02	"2009-10-02"	12:53:00	"12:53"	2009-10-02	"2009-10-02"	2010-04-14	"2010-04-14"	"ECOG=0 or ECOG=1"	0	"DM"	"Years"	"2009-10-02T12:53"	14:05:00	"14:05"	NA	""
"66"	"60"	"EFC6546"	"006546-094-098-401"	"094098401"	""	NA	"M"	1	"CAUCASIAN/WHITE"	1	"SCRNFAIL"	"SCREEN FAILURE"	NA	"SCRNFAIL"	"SCREEN FAILURE"	NA	"N"	"N"	"N"	"N"	""	NA	""	NA	NA	""	NA	""	NA	""	NA	""	""	NA	"DM"	"Years"	""	NA	""	NA	""
"67"	"67"	"EFC6546"	"006546-100-107-401"	"100107401"	"ECOG=0 or ECOG=1"	0	"M"	1	"CAUCASIAN/WHITE"	1	"PLACEBO"	"PLACEBO"	0	"PLACEBO"	"PLACEBO"	0	"Y"	"Y"	"Y"	"Y"	"ECOG=0"	0	"ECOG=0"	0	2008-07-08	"2008-07-08"	11:20:00	"11:20"	2008-07-10	"2008-07-10"	2008-11-20	"2008-11-20"	"ECOG=0 or ECOG=1"	0	"DM"	"Years"	"2008-07-08T11:20"	11:10:00	"11:10"	NA	""
"68"	"54"	"EFC6546"	"006546-100-107-501"	"100107501"	"ECOG=0 or ECOG=1"	0	"M"	1	"CAUCASIAN/WHITE"	1	"PLACEBO"	"PLACEBO"	0	"PLACEBO"	"PLACEBO"	0	"Y"	"Y"	"Y"	"Y"	"ECOG=0"	0	"ECOG=1"	1	2008-09-24	"2008-09-24"	13:35:00	"13:35"	2008-09-26	"2008-09-26"	2009-05-15	"2009-05-15"	"ECOG=0 or ECOG=1"	0	"DM"	"Years"	"2008-09-24T13:35"	10:15:00	"10:15"	NA	""
"69"	"61"	"EFC6546"	"006546-100-107-601"	"100107601"	"ECOG=0 or ECOG=1"	0	"M"	1	"CAUCASIAN/WHITE"	1	"PLACEBO"	"PLACEBO"	0	"PLACEBO"	"PLACEBO"	0	"Y"	"Y"	"Y"	"Y"	"ECOG=0"	0	"ECOG=0"	0	2008-10-20	"2008-10-20"	12:49:00	"12:49"	2008-10-21	"2008-10-21"	2009-05-05	"2009-05-05"	"ECOG=0 or ECOG=1"	0	"DM"	"Years"	"2008-10-20T12:49"	12:05:00	"12:05"	NA	""
"70"	"68"	"EFC6546"	"006546-100-197-401"	"100197401"	""	NA	"M"	1	"CAUCASIAN/WHITE"	1	"SCRNFAIL"	"SCREEN FAILURE"	NA	"SCRNFAIL"	"SCREEN FAILURE"	NA	"N"	"N"	"N"	"N"	""	NA	""	NA	NA	""	NA	""	NA	""	NA	""	""	NA	"DM"	"Years"	""	NA	""	NA	""
"71"	"45"	"EFC6546"	"006546-110-197-401"	"110197401"	""	NA	"M"	1	"CAUCASIAN/WHITE"	1	"SCRNFAIL"	"SCREEN FAILURE"	NA	"SCRNFAIL"	"SCREEN FAILURE"	NA	"N"	"N"	"N"	"N"	""	NA	""	NA	NA	""	NA	""	NA	""	NA	""	""	NA	"DM"	"Years"	""	NA	""	NA	""
"72"	"79"	"EFC6546"	"006546-110-197-501"	"110197501"	""	NA	"M"	1	"CAUCASIAN/WHITE"	1	"SCRNFAIL"	"SCREEN FAILURE"	NA	"SCRNFAIL"	"SCREEN FAILURE"	NA	"N"	"N"	"N"	"N"	""	NA	""	NA	NA	""	NA	""	NA	""	NA	""	""	NA	"DM"	"Years"	""	NA	""	NA	""
"73"	"64"	"EFC6546"	"006546-110-197-601"	"110197601"	""	NA	"M"	1	"CAUCASIAN/WHITE"	1	"SCRNFAIL"	"SCREEN FAILURE"	NA	"SCRNFAIL"	"SCREEN FAILURE"	NA	"N"	"N"	"N"	"N"	""	NA	""	NA	NA	""	NA	""	NA	""	NA	""	""	NA	"DM"	"Years"	""	NA	""	NA	""
"74"	"60"	"EFC6546"	"006546-130-004-202"	"130004202"	"ECOG=0 or ECOG=1"	0	"M"	1	"ASIAN/ORIENTAL"	3	"PLACEBO"	"PLACEBO"	0	"PLACEBO"	"PLACEBO"	0	"Y"	"Y"	"Y"	"Y"	"ECOG=1"	1	"ECOG=1"	1	2009-09-16	"2009-09-16"	09:16:00	"09:16"	2009-09-16	"2009-09-16"	2009-10-28	"2009-10-28"	"ECOG=0 or ECOG=1"	0	"DM"	"Years"	"2009-09-16T09:16"	11:30:00	"11:30"	NA	""
"75"	"79"	"EFC6546"	"006546-130-004-302"	"130004302"	"ECOG=0 or ECOG=1"	0	"M"	1	"ASIAN/ORIENTAL"	3	"PLACEBO"	"PLACEBO"	0	"PLACEBO"	"PLACEBO"	0	"Y"	"Y"	"Y"	"Y"	"ECOG=1"	1	"ECOG=1"	1	2009-11-30	"2009-11-30"	10:50:00	"10:50"	2009-11-30	"2009-11-30"	2010-03-18	"2010-03-18"	"ECOG=0 or ECOG=1"	0	"DM"	"Years"	"2009-11-30T10:50"	14:30:00	"14:30"	NA	""
"76"	"68"	"EFC6546"	"006546-130-004-601"	"130004601"	"ECOG=0 or ECOG=1"	0	"M"	1	"ASIAN/ORIENTAL"	3	"PLACEBO"	"PLACEBO"	0	"PLACEBO"	"PLACEBO"	0	"Y"	"Y"	"Y"	"Y"	"ECOG=1"	1	"ECOG=1"	1	2008-06-26	"2008-06-26"	12:57:00	"12:57"	2008-06-26	"2008-06-26"	2008-07-17	"2008-07-17"	"ECOG=0 or ECOG=1"	0	"DM"	"Years"	"2008-06-26T12:57"	15:45:00	"15:45"	NA	""
"77"	"65"	"EFC6546"	"006546-130-004-701"	"130004701"	"ECOG=0 or ECOG=1"	0	"M"	1	"ASIAN/ORIENTAL"	3	"PLACEBO"	"PLACEBO"	0	"PLACEBO"	"PLACEBO"	0	"Y"	"Y"	"Y"	"Y"	"ECOG=0"	0	"ECOG=0"	0	2008-09-23	"2008-09-23"	08:22:00	"08:22"	2008-09-23	"2008-09-23"	2009-10-16	"2009-10-16"	"ECOG=0 or ECOG=1"	0	"DM"	"Years"	"2008-09-23T08:22"	12:30:00	"12:30"	NA	""
"78"	"59"	"EFC6546"	"006546-130-004-801"	"130004801"	"ECOG=0 or ECOG=1"	0	"M"	1	"ASIAN/ORIENTAL"	3	"PLACEBO"	"PLACEBO"	0	"PLACEBO"	"PLACEBO"	0	"Y"	"Y"	"Y"	"Y"	"ECOG=0"	0	"ECOG=0"	0	2008-11-04	"2008-11-04"	09:23:00	"09:23"	2008-11-04	"2008-11-04"	2010-01-13	"2010-01-13"	"ECOG=0 or ECOG=1"	0	"DM"	"Years"	"2008-11-04T09:23"	14:00:00	"14:00"	13:40:00	"13:40"
"79"	"79"	"EFC6546"	"006546-130-007-401"	"130007401"	"ECOG=0 or ECOG=1"	0	"M"	1	"CAUCASIAN/WHITE"	1	"PLACEBO"	"PLACEBO"	0	"PLACEBO"	"PLACEBO"	0	"Y"	"Y"	"Y"	"Y"	"ECOG=0"	0	"ECOG=1"	1	2007-12-20	"2007-12-20"	10:12:00	"10:12"	2007-12-21	"2007-12-21"	2008-07-17	"2008-07-17"	"ECOG=0 or ECOG=1"	0	"DM"	"Years"	"2007-12-20T10:12"	NA	"XX:XX"	NA	""
"80"	"56"	"EFC6546"	"006546-130-094-401"	"130094401"	""	NA	"M"	1	"ASIAN/ORIENTAL"	3	"SCRNFAIL"	"SCREEN FAILURE"	NA	"SCRNFAIL"	"SCREEN FAILURE"	NA	"N"	"N"	"N"	"N"	""	NA	""	NA	NA	""	NA	""	NA	""	NA	""	""	NA	"DM"	"Years"	""	NA	""	NA	""
"81"	"58"	"EFC6546"	"006546-136-006-002"	"136006002"	"ECOG=0 or ECOG=1"	0	"M"	1	"CAUCASIAN/WHITE"	1	"PLACEBO"	"PLACEBO"	0	"PLACEBO"	"PLACEBO"	0	"Y"	"Y"	"Y"	"Y"	"ECOG=1"	1	"ECOG=1"	1	2008-03-12	"2008-03-12"	14:16:00	"14:16"	2008-03-13	"2008-03-13"	2008-07-22	"2008-07-22"	"ECOG=0 or ECOG=1"	0	"DM"	"Years"	"2008-03-12T14:16"	13:15:00	"13:15"	15:40:00	"15:40"
"82"	"62"	"EFC6546"	"006546-136-006-103"	"136006103"	"ECOG=0 or ECOG=1"	0	"M"	1	"CAUCASIAN/WHITE"	1	"PLACEBO"	"PLACEBO"	0	"PLACEBO"	"PLACEBO"	0	"Y"	"Y"	"Y"	"Y"	"ECOG=0"	0	"ECOG=0"	0	2009-05-20	"2009-05-20"	13:05:00	"13:05"	2009-05-20	"2009-05-20"	2009-09-10	"2009-09-10"	"ECOG=0 or ECOG=1"	0	"DM"	"Years"	"2009-05-20T13:05"	13:45:00	"13:45"	NA	""
"83"	"74"	"EFC6546"	"006546-136-006-302"	"136006302"	"ECOG=0 or ECOG=1"	0	"M"	1	"CAUCASIAN/WHITE"	1	"PLACEBO"	"PLACEBO"	0	"PLACEBO"	"PLACEBO"	0	"Y"	"Y"	"Y"	"Y"	"ECOG=1"	1	"ECOG=1"	1	2008-04-07	"2008-04-07"	13:01:00	"13:01"	2008-04-07	"2008-04-07"	2009-09-02	"2009-09-02"	"ECOG=0 or ECOG=1"	0	"DM"	"Years"	"2008-04-07T13:01"	14:00:00	"14:00"	NA	""
"84"	"73"	"EFC6546"	"006546-136-006-303"	"136006303"	"ECOG=0 or ECOG=1"	0	"M"	1	"CAUCASIAN/WHITE"	1	"PLACEBO"	"PLACEBO"	0	"PLACEBO"	"PLACEBO"	0	"Y"	"Y"	"Y"	"Y"	"ECOG=1"	1	"ECOG=1"	1	2009-10-07	"2009-10-07"	09:26:00	"09:26"	2009-10-07	"2009-10-07"	2010-05-18	"2010-05-18"	"ECOG=0 or ECOG=1"	0	"DM"	"Years"	"2009-10-07T09:26"	11:30:00	"11:30"	NA	""
"85"	"59"	"EFC6546"	"006546-136-006-401"	"136006401"	"ECOG=0 or ECOG=1"	0	"M"	1	"CAUCASIAN/WHITE"	1	"PLACEBO"	"PLACEBO"	0	"PLACEBO"	"PLACEBO"	0	"Y"	"Y"	"Y"	"Y"	"ECOG=1"	1	"ECOG=1"	1	2008-01-08	"2008-01-08"	15:31:00	"15:31"	2008-01-09	"2008-01-09"	2008-09-02	"2008-09-02"	"ECOG=0 or ECOG=1"	0	"DM"	"Years"	"2008-01-08T15:31"	13:00:00	"13:00"	NA	""
"86"	"76"	"EFC6546"	"006546-136-006-402"	"136006402"	"ECOG=0 or ECOG=1"	0	"M"	1	"CAUCASIAN/WHITE"	1	"PLACEBO"	"PLACEBO"	0	"PLACEBO"	"PLACEBO"	0	"Y"	"Y"	"Y"	"Y"	"ECOG=1"	1	"ECOG=1"	1	2008-07-30	"2008-07-30"	12:04:00	"12:04"	2008-07-30	"2008-07-30"	2008-11-13	"2008-11-13"	"ECOG=0 or ECOG=1"	0	"DM"	"Years"	"2008-07-30T12:04"	13:30:00	"13:30"	14:30:00	"14:30"
"87"	"75"	"EFC6546"	"006546-136-006-501"	"136006501"	"ECOG=0 or ECOG=1"	0	"M"	1	"CAUCASIAN/WHITE"	1	"PLACEBO"	"PLACEBO"	0	"NOTASSGN"	"Not Assigned"	-1	"Y"	"N"	"N"	"Y"	"ECOG=0"	0	"ECOG=0"	0	2008-01-11	"2008-01-11"	14:59:00	"14:59"	NA	""	NA	""	"ECOG=0 or ECOG=1"	0	"DM"	"Years"	"2008-01-11T14:59"	NA	""	NA	""
"88"	"75"	"EFC6546"	"006546-136-006-702"	"136006702"	"ECOG=0 or ECOG=1"	0	"M"	1	"CAUCASIAN/WHITE"	1	"PLACEBO"	"PLACEBO"	0	"PLACEBO"	"PLACEBO"	0	"Y"	"Y"	"Y"	"Y"	"ECOG=1"	1	"ECOG=1"	1	2009-03-27	"2009-03-27"	10:28:00	"10:28"	2009-03-27	"2009-03-27"	2009-06-04	"2009-06-04"	"ECOG=0 or ECOG=1"	0	"DM"	"Years"	"2009-03-27T10:28"	12:00:00	"12:00"	NA	""
"89"	"68"	"EFC6546"	"006546-136-006-901"	"136006901"	"ECOG=0 or ECOG=1"	0	"M"	1	"CAUCASIAN/WHITE"	1	"PLACEBO"	"PLACEBO"	0	"PLACEBO"	"PLACEBO"	0	"Y"	"Y"	"Y"	"Y"	"ECOG=1"	1	"ECOG=1"	1	2008-03-12	"2008-03-12"	13:11:00	"13:11"	2008-03-13	"2008-03-13"	2009-03-31	"2009-03-31"	"ECOG=0 or ECOG=1"	0	"DM"	"Years"	"2008-03-12T13:11"	13:00:00	"13:00"	NA	""
"90"	"72"	"EFC6546"	"006546-140-004-501"	"140004501"	"ECOG=0 or ECOG=1"	0	"M"	1	"ASIAN/ORIENTAL"	3	"PLACEBO"	"PLACEBO"	0	"PLACEBO"	"PLACEBO"	0	"Y"	"Y"	"Y"	"Y"	"ECOG=0"	0	"ECOG=0"	0	2008-12-19	"2008-12-19"	10:29:00	"10:29"	2008-12-19	"2008-12-19"	2009-03-13	"2009-03-13"	"ECOG=0 or ECOG=1"	0	"DM"	"Years"	"2008-12-19T10:29"	12:25:00	"12:25"	NA	""
"91"	"60"	"EFC6546"	"006546-140-004-601"	"140004601"	"ECOG=0 or ECOG=1"	0	"M"	1	"ASIAN/ORIENTAL"	3	"PLACEBO"	"PLACEBO"	0	"PLACEBO"	"PLACEBO"	0	"Y"	"Y"	"Y"	"Y"	"ECOG=0"	0	"ECOG=0"	0	2009-11-27	"2009-11-27"	10:36:00	"10:36"	2009-11-27	"2009-11-27"	2010-04-02	"2010-04-02"	"ECOG=0 or ECOG=1"	0	"DM"	"Years"	"2009-11-27T10:36"	12:20:00	"12:20"	NA	""
"92"	"73"	"EFC6546"	"006546-140-004-701"	"140004701"	"ECOG=0 or ECOG=1"	0	"M"	1	"ASIAN/ORIENTAL"	3	"PLACEBO"	"PLACEBO"	0	"PLACEBO"	"PLACEBO"	0	"Y"	"Y"	"Y"	"Y"	"ECOG=1"	1	"ECOG=1"	1	2009-12-18	"2009-12-18"	09:40:00	"09:40"	2009-12-18	"2009-12-18"	2011-02-10	"2011-02-10"	"ECOG=0 or ECOG=1"	0	"DM"	"Years"	"2009-12-18T09:40"	12:52:00	"12:52"	14:36:00	"14:36"
"93"	"67"	"EFC6546"	"006546-140-004-801"	"140004801"	"ECOG=0 or ECOG=1"	0	"M"	1	"ASIAN/ORIENTAL"	3	"PLACEBO"	"PLACEBO"	0	"PLACEBO"	"PLACEBO"	0	"Y"	"Y"	"Y"	"Y"	"ECOG=1"	1	"ECOG=1"	1	2010-02-10	"2010-02-10"	10:48:00	"10:48"	2010-02-12	"2010-02-12"	2010-10-08	"2010-10-08"	"ECOG=0 or ECOG=1"	0	"DM"	"Years"	"2010-02-10T10:48"	11:38:00	"11:38"	NA	""
"94"	"58"	"EFC6546"	"006546-140-007-401"	"140007401"	"ECOG=0 or ECOG=1"	0	"M"	1	"BLACK"	2	"PLACEBO"	"PLACEBO"	0	"PLACEBO"	"PLACEBO"	0	"Y"	"Y"	"Y"	"Y"	"ECOG=1"	1	"ECOG=1"	1	2009-04-15	"2009-04-15"	08:24:00	"08:24"	2009-04-15	"2009-04-15"	2010-02-25	"2010-02-25"	"ECOG=0 or ECOG=1"	0	"DM"	"Years"	"2009-04-15T08:24"	10:10:00	"10:10"	NA	""
"95"	"64"	"EFC6546"	"006546-140-097-401"	"140097401"	""	NA	"M"	1	"BLACK"	2	"SCRNFAIL"	"SCREEN FAILURE"	NA	"SCRNFAIL"	"SCREEN FAILURE"	NA	"N"	"N"	"N"	"N"	""	NA	""	NA	NA	""	NA	""	NA	""	NA	""	""	NA	"DM"	"Years"	""	NA	""	NA	""
"96"	"59"	"EFC6546"	"006546-140-097-501"	"140097501"	""	NA	"M"	1	"BLACK"	2	"SCRNFAIL"	"SCREEN FAILURE"	NA	"SCRNFAIL"	"SCREEN FAILURE"	NA	"N"	"N"	"N"	"N"	""	NA	""	NA	NA	""	NA	""	NA	""	NA	""	""	NA	"DM"	"Years"	""	NA	""	NA	""
"97"	"81"	"EFC6546"	"006546-140-097-601"	"140097601"	""	NA	"M"	1	"BLACK"	2	"SCRNFAIL"	"SCREEN FAILURE"	NA	"SCRNFAIL"	"SCREEN FAILURE"	NA	"N"	"N"	"N"	"N"	""	NA	""	NA	NA	""	NA	""	NA	""	NA	""	""	NA	"DM"	"Years"	""	NA	""	NA	""
"98"	"79"	"EFC6546"	"006546-140-097-701"	"140097701"	""	NA	"M"	1	"BLACK"	2	"SCRNFAIL"	"SCREEN FAILURE"	NA	"SCRNFAIL"	"SCREEN FAILURE"	NA	"N"	"N"	"N"	"N"	""	NA	""	NA	NA	""	NA	""	NA	""	NA	""	""	NA	"DM"	"Years"	""	NA	""	NA	""
"99"	"74"	"EFC6546"	"006546-146-006-002"	"146006002"	"ECOG=0 or ECOG=1"	0	"M"	1	"CAUCASIAN/WHITE"	1	"PLACEBO"	"PLACEBO"	0	"PLACEBO"	"PLACEBO"	0	"Y"	"Y"	"Y"	"Y"	"ECOG=1"	1	"ECOG=1"	1	2009-05-08	"2009-05-08"	12:00:00	"12:00"	2009-05-08	"2009-05-08"	2009-07-10	"2009-07-10"	"ECOG=0 or ECOG=1"	0	"DM"	"Years"	"2009-05-08T12:00"	12:50:00	"12:50"	NA	""
"100"	"66"	"EFC6546"	"006546-146-006-102"	"146006102"	"ECOG=0 or ECOG=1"	0	"M"	1	"CAUCASIAN/WHITE"	1	"PLACEBO"	"PLACEBO"	0	"PLACEBO"	"PLACEBO"	0	"Y"	"Y"	"Y"	"Y"	"ECOG=1"	1	"ECOG=1"	1	2009-05-27	"2009-05-27"	12:12:00	"12:12"	2009-05-27	"2009-05-27"	2009-10-21	"2009-10-21"	"ECOG=0 or ECOG=1"	0	"DM"	"Years"	"2009-05-27T12:12"	14:05:00	"14:05"	NA	""
"101"	"59"	"EFC6546"	"006546-146-006-501"	"146006501"	"ECOG=2"	1	"M"	1	"CAUCASIAN/WHITE"	1	"PLACEBO"	"PLACEBO"	0	"PLACEBO"	"PLACEBO"	0	"Y"	"Y"	"Y"	"Y"	"ECOG=2"	2	"ECOG=2"	2	2008-06-11	"2008-06-11"	15:26:00	"15:26"	2008-06-12	"2008-06-12"	2009-04-23	"2009-04-23"	"ECOG=2"	1	"DM"	"Years"	"2008-06-11T15:26"	12:00:00	"12:00"	NA	""
"102"	"65"	"EFC6546"	"006546-146-096-401"	"146096401"	""	NA	"M"	1	"CAUCASIAN/WHITE"	1	"SCRNFAIL"	"SCREEN FAILURE"	NA	"SCRNFAIL"	"SCREEN FAILURE"	NA	"N"	"N"	"N"	"N"	""	NA	""	NA	NA	""	NA	""	NA	""	NA	""	""	NA	"DM"	"Years"	""	NA	""	NA	""
"103"	"62"	"EFC6546"	"006546-150-004-401"	"150004401"	"ECOG=0 or ECOG=1"	0	"M"	1	"ASIAN/ORIENTAL"	3	"PLACEBO"	"PLACEBO"	0	"PLACEBO"	"PLACEBO"	0	"Y"	"Y"	"Y"	"Y"	"ECOG=0"	0	"ECOG=0"	0	2008-04-21	"2008-04-21"	09:21:00	"09:21"	2008-04-21	"2008-04-21"	2010-06-16	"2010-06-16"	"ECOG=0 or ECOG=1"	0	"DM"	"Years"	"2008-04-21T09:21"	13:00:00	"13:00"	NA	""
"104"	"51"	"EFC6546"	"006546-150-004-501"	"150004501"	"ECOG=0 or ECOG=1"	0	"M"	1	"ASIAN/ORIENTAL"	3	"PLACEBO"	"PLACEBO"	0	"PLACEBO"	"PLACEBO"	0	"Y"	"Y"	"Y"	"Y"	"ECOG=0"	0	"ECOG=0"	0	2008-05-13	"2008-05-13"	11:26:00	"11:26"	2008-05-13	"2008-05-13"	2010-01-06	"2010-01-06"	"ECOG=0 or ECOG=1"	0	"DM"	"Years"	"2008-05-13T11:26"	16:00:00	"16:00"	NA	""
"105"	"62"	"EFC6546"	"006546-150-094-401"	"150094401"	""	NA	"M"	1	"ASIAN/ORIENTAL"	3	"SCRNFAIL"	"SCREEN FAILURE"	NA	"SCRNFAIL"	"SCREEN FAILURE"	NA	"N"	"N"	"N"	"N"	""	NA	""	NA	NA	""	NA	""	NA	""	NA	""	""	NA	"DM"	"Years"	""	NA	""	NA	""
"106"	"67"	"EFC6546"	"006546-150-097-401"	"150097401"	""	NA	"M"	1	"CAUCASIAN/WHITE"	1	"SCRNFAIL"	"SCREEN FAILURE"	NA	"SCRNFAIL"	"SCREEN FAILURE"	NA	"N"	"N"	"N"	"N"	""	NA	""	NA	NA	""	NA	""	NA	""	NA	""	""	NA	"DM"	"Years"	""	NA	""	NA	""
"107"	"68"	"EFC6546"	"006546-150-097-501"	"150097501"	""	NA	"M"	1	"CAUCASIAN/WHITE"	1	"SCRNFAIL"	"SCREEN FAILURE"	NA	"SCRNFAIL"	"SCREEN FAILURE"	NA	"N"	"N"	"N"	"N"	""	NA	""	NA	NA	""	NA	""	NA	""	NA	""	""	NA	"DM"	"Years"	""	NA	""	NA	""
"108"	"41"	"EFC6546"	"006546-156-006-401"	"156006401"	"ECOG=0 or ECOG=1"	0	"M"	1	"CAUCASIAN/WHITE"	1	"PLACEBO"	"PLACEBO"	0	"PLACEBO"	"PLACEBO"	0	"Y"	"Y"	"Y"	"Y"	"ECOG=1"	1	"ECOG=1"	1	2008-08-04	"2008-08-04"	12:10:00	"12:10"	2008-08-05	"2008-08-05"	2010-01-13	"2010-01-13"	"ECOG=0 or ECOG=1"	0	"DM"	"Years"	"2008-08-04T12:10"	09:00:00	"09:00"	14:00:00	"14:00"
"109"	"61"	"EFC6546"	"006546-156-006-601"	"156006601"	"ECOG=0 or ECOG=1"	0	"M"	1	"CAUCASIAN/WHITE"	1	"PLACEBO"	"PLACEBO"	0	"PLACEBO"	"PLACEBO"	0	"Y"	"Y"	"Y"	"Y"	"ECOG=1"	1	"ECOG=1"	1	2009-03-18	"2009-03-18"	08:07:00	"08:07"	2009-03-18	"2009-03-18"	2010-04-21	"2010-04-21"	"ECOG=0 or ECOG=1"	0	"DM"	"Years"	"2009-03-18T08:07"	09:00:00	"09:00"	NA	""
"110"	"75"	"EFC6546"	"006546-160-004-501"	"160004501"	"ECOG=0 or ECOG=1"	0	"M"	1	"ASIAN/ORIENTAL"	3	"PLACEBO"	"PLACEBO"	0	"PLACEBO"	"PLACEBO"	0	"Y"	"Y"	"Y"	"Y"	"ECOG=1"	1	"ECOG=1"	1	2008-08-13	"2008-08-13"	13:30:00	"13:30"	2008-08-13	"2008-08-13"	2009-03-04	"2009-03-04"	"ECOG=0 or ECOG=1"	0	"DM"	"Years"	"2008-08-13T13:30"	14:40:00	"14:40"	NA	""
"111"	"73"	"EFC6546"	"006546-160-004-801"	"160004801"	"ECOG=0 or ECOG=1"	0	"M"	1	"ASIAN/ORIENTAL"	3	"PLACEBO"	"PLACEBO"	0	"PLACEBO"	"PLACEBO"	0	"Y"	"Y"	"Y"	"Y"	"ECOG=1"	1	"ECOG=1"	1	2010-02-04	"2010-02-04"	09:13:00	"09:13"	2010-02-06	"2010-02-06"	2010-08-06	"2010-08-06"	"ECOG=0 or ECOG=1"	0	"DM"	"Years"	"2010-02-04T09:13"	09:20:00	"09:20"	NA	""
"112"	"64"	"EFC6546"	"006546-160-007-401"	"160007401"	"ECOG=0 or ECOG=1"	0	"M"	1	"CAUCASIAN/WHITE"	1	"PLACEBO"	"PLACEBO"	0	"PLACEBO"	"PLACEBO"	0	"Y"	"Y"	"Y"	"Y"	"ECOG=1"	1	"ECOG=1"	1	2009-07-24	"2009-07-24"	08:15:00	"08:15"	2009-07-24	"2009-07-24"	2009-12-28	"2009-12-28"	"ECOG=0 or ECOG=1"	0	"DM"	"Years"	"2009-07-24T08:15"	11:30:00	"11:30"	14:42:00	"14:42"
"113"	"62"	"EFC6546"	"006546-160-007-601"	"160007601"	"ECOG=0 or ECOG=1"	0	"M"	1	"CAUCASIAN/WHITE"	1	"PLACEBO"	"PLACEBO"	0	"PLACEBO"	"PLACEBO"	0	"Y"	"Y"	"Y"	"Y"	"ECOG=1"	1	"ECOG=1"	1	2009-12-15	"2009-12-15"	11:22:00	"11:22"	2009-12-15	"2009-12-15"	2010-08-19	"2010-08-19"	"ECOG=0 or ECOG=1"	0	"DM"	"Years"	"2009-12-15T11:22"	12:55:00	"12:55"	15:00:00	"15:00"
"114"	"78"	"EFC6546"	"006546-160-094-401"	"160094401"	""	NA	"M"	1	"ASIAN/ORIENTAL"	3	"SCRNFAIL"	"SCREEN FAILURE"	NA	"SCRNFAIL"	"SCREEN FAILURE"	NA	"N"	"N"	"N"	"N"	""	NA	""	NA	NA	""	NA	""	NA	""	NA	""	""	NA	"DM"	"Years"	""	NA	""	NA	""
"115"	"70"	"EFC6546"	"006546-160-097-401"	"160097401"	""	NA	"M"	1	"CAUCASIAN/WHITE"	1	"SCRNFAIL"	"SCREEN FAILURE"	NA	"SCRNFAIL"	"SCREEN FAILURE"	NA	"N"	"N"	"N"	"N"	""	NA	""	NA	NA	""	NA	""	NA	""	NA	""	""	NA	"DM"	"Years"	""	NA	""	NA	""
"116"	"74"	"EFC6546"	"006546-160-097-501"	"160097501"	""	NA	"M"	1	"CAUCASIAN/WHITE"	1	"SCRNFAIL"	"SCREEN FAILURE"	NA	"SCRNFAIL"	"SCREEN FAILURE"	NA	"N"	"N"	"N"	"N"	""	NA	""	NA	NA	""	NA	""	NA	""	NA	""	""	NA	"DM"	"Years"	""	NA	""	NA	""
"117"	"60"	"EFC6546"	"006546-166-096-401"	"166096401"	""	NA	"M"	1	"CAUCASIAN/WHITE"	1	"SCRNFAIL"	"SCREEN FAILURE"	NA	"SCRNFAIL"	"SCREEN FAILURE"	NA	"N"	"N"	"N"	"N"	""	NA	""	NA	NA	""	NA	""	NA	""	NA	""	""	NA	"DM"	"Years"	""	NA	""	NA	""
"118"	"65"	"EFC6546"	"006546-170-007-501"	"170007501"	"ECOG=0 or ECOG=1"	0	"M"	1	"ASIAN/ORIENTAL"	3	"PLACEBO"	"PLACEBO"	0	"PLACEBO"	"PLACEBO"	0	"Y"	"Y"	"Y"	"Y"	"ECOG=1"	1	"ECOG=1"	1	2009-04-30	"2009-04-30"	11:59:00	"11:59"	2009-04-30	"2009-04-30"	2009-07-24	"2009-07-24"	"ECOG=0 or ECOG=1"	0	"DM"	"Years"	"2009-04-30T11:59"	12:00:00	"12:00"	NA	""
"119"	"81"	"EFC6546"	"006546-170-097-401"	"170097401"	""	NA	"M"	1	"ASIAN/ORIENTAL"	3	"SCRNFAIL"	"SCREEN FAILURE"	NA	"SCRNFAIL"	"SCREEN FAILURE"	NA	"N"	"N"	"N"	"N"	""	NA	""	NA	NA	""	NA	""	NA	""	NA	""	""	NA	"DM"	"Years"	""	NA	""	NA	""
"120"	"77"	"EFC6546"	"006546-170-097-501"	"170097501"	""	NA	"M"	1	"CAUCASIAN/WHITE"	1	"SCRNFAIL"	"SCREEN FAILURE"	NA	"SCRNFAIL"	"SCREEN FAILURE"	NA	"N"	"N"	"N"	"N"	""	NA	""	NA	NA	""	NA	""	NA	""	NA	""	""	NA	"DM"	"Years"	""	NA	""	NA	""
"121"	"70"	"EFC6546"	"006546-170-097-601"	"170097601"	""	NA	"M"	1	"CAUCASIAN/WHITE"	1	"SCRNFAIL"	"SCREEN FAILURE"	NA	"SCRNFAIL"	"SCREEN FAILURE"	NA	"N"	"N"	"N"	"N"	""	NA	""	NA	NA	""	NA	""	NA	""	NA	""	""	NA	"DM"	"Years"	""	NA	""	NA	""
"122"	"66"	"EFC6546"	"006546-190-007-401"	"190007401"	"ECOG=0 or ECOG=1"	0	"M"	1	"CAUCASIAN/WHITE"	1	"PLACEBO"	"PLACEBO"	0	"PLACEBO"	"PLACEBO"	0	"Y"	"Y"	"Y"	"Y"	"ECOG=1"	1	"ECOG=1"	1	2008-05-06	"2008-05-06"	10:51:00	"10:51"	2008-05-06	"2008-05-06"	2008-09-16	"2008-09-16"	"ECOG=0 or ECOG=1"	0	"DM"	"Years"	"2008-05-06T10:51"	12:15:00	"12:15"	NA	""
"123"	"63"	"EFC6546"	"006546-190-007-501"	"190007501"	"ECOG=0 or ECOG=1"	0	"M"	1	"OTHER"	99	"PLACEBO"	"PLACEBO"	0	"PLACEBO"	"PLACEBO"	0	"Y"	"Y"	"Y"	"Y"	"ECOG=1"	1	"ECOG=1"	1	2008-12-09	"2008-12-09"	10:15:00	"10:15"	2008-12-09	"2008-12-09"	2009-05-05	"2009-05-05"	"ECOG=0 or ECOG=1"	0	"DM"	"Years"	"2008-12-09T10:15"	12:30:00	"12:30"	NA	""
"124"	"67"	"EFC6546"	"006546-190-007-601"	"190007601"	"ECOG=0 or ECOG=1"	0	"M"	1	"CAUCASIAN/WHITE"	1	"PLACEBO"	"PLACEBO"	0	"PLACEBO"	"PLACEBO"	0	"Y"	"Y"	"Y"	"Y"	"ECOG=1"	1	"ECOG=1"	1	2009-06-18	"2009-06-18"	09:05:00	"09:05"	2009-06-18	"2009-06-18"	2009-09-08	"2009-09-08"	"ECOG=0 or ECOG=1"	0	"DM"	"Years"	"2009-06-18T09:05"	11:05:00	"11:05"	NA	""
"125"	"61"	"EFC6546"	"006546-190-097-401"	"190097401"	""	NA	"M"	1	"OTHER"	99	"SCRNFAIL"	"SCREEN FAILURE"	NA	"SCRNFAIL"	"SCREEN FAILURE"	NA	"N"	"N"	"N"	"N"	""	NA	""	NA	NA	""	NA	""	NA	""	NA	""	""	NA	"DM"	"Years"	""	NA	""	NA	""
"126"	"63"	"EFC6546"	"006546-190-097-501"	"190097501"	""	NA	"M"	1	"BLACK"	2	"SCRNFAIL"	"SCREEN FAILURE"	NA	"SCRNFAIL"	"SCREEN FAILURE"	NA	"N"	"N"	"N"	"N"	""	NA	""	NA	NA	""	NA	""	NA	""	NA	""	""	NA	"DM"	"Years"	""	NA	""	NA	""
"127"	"62"	"EFC6546"	"006546-190-097-601"	"190097601"	""	NA	"M"	1	"OTHER"	99	"SCRNFAIL"	"SCREEN FAILURE"	NA	"SCRNFAIL"	"SCREEN FAILURE"	NA	"N"	"N"	"N"	"N"	""	NA	""	NA	NA	""	NA	""	NA	""	NA	""	""	NA	"DM"	"Years"	""	NA	""	NA	""
"128"	"72"	"EFC6546"	"006546-190-097-701"	"190097701"	""	NA	"M"	1	"OTHER"	99	"SCRNFAIL"	"SCREEN FAILURE"	NA	"SCRNFAIL"	"SCREEN FAILURE"	NA	"N"	"N"	"N"	"N"	""	NA	""	NA	NA	""	NA	""	NA	""	NA	""	""	NA	"DM"	"Years"	""	NA	""	NA	""
"129"	"69"	"EFC6546"	"006546-190-097-801"	"190097801"	""	NA	"M"	1	"CAUCASIAN/WHITE"	1	"SCRNFAIL"	"SCREEN FAILURE"	NA	"SCRNFAIL"	"SCREEN FAILURE"	NA	"N"	"N"	"N"	"N"	""	NA	""	NA	NA	""	NA	""	NA	""	NA	""	""	NA	"DM"	"Years"	""	NA	""	NA	""
"130"	"70"	"EFC6546"	"006546-204-101-102"	"204101102"	"ECOG=0 or ECOG=1"	0	"M"	1	"CAUCASIAN/WHITE"	1	"PLACEBO"	"PLACEBO"	0	"PLACEBO"	"PLACEBO"	0	"Y"	"Y"	"Y"	"Y"	"ECOG=0"	0	"ECOG=0"	0	2009-12-08	"2009-12-08"	12:16:00	"12:16"	2009-12-10	"2009-12-10"	2010-03-30	"2010-03-30"	"ECOG=0 or ECOG=1"	0	"DM"	"Years"	"2009-12-08T12:16"	15:25:00	"15:25"	NA	""
"131"	"63"	"EFC6546"	"006546-204-101-401"	"204101401"	"ECOG=0 or ECOG=1"	0	"M"	1	"CAUCASIAN/WHITE"	1	"PLACEBO"	"PLACEBO"	0	"PLACEBO"	"PLACEBO"	0	"Y"	"Y"	"Y"	"Y"	"ECOG=0"	0	"ECOG=0"	0	2008-09-08	"2008-09-08"	09:55:00	"09:55"	2008-09-10	"2008-09-10"	2009-03-23	"2009-03-23"	"ECOG=0 or ECOG=1"	0	"DM"	"Years"	"2008-09-08T09:55"	NA	"XX:XX"	NA	""
"132"	"63"	"EFC6546"	"006546-204-101-901"	"204101901"	"ECOG=0 or ECOG=1"	0	"M"	1	"CAUCASIAN/WHITE"	1	"PLACEBO"	"PLACEBO"	0	"PLACEBO"	"PLACEBO"	0	"Y"	"Y"	"Y"	"Y"	"ECOG=0"	0	"ECOG=0"	0	2009-09-03	"2009-09-03"	15:53:00	"15:53"	2009-09-08	"2009-09-08"	2010-01-29	"2010-01-29"	"ECOG=0 or ECOG=1"	0	"DM"	"Years"	"2009-09-03T15:53"	11:17:00	"11:17"	NA	""
"133"	"61"	"EFC6546"	"006546-206-108-002"	"206108002"	"ECOG=0 or ECOG=1"	0	"M"	1	"CAUCASIAN/WHITE"	1	"PLACEBO"	"PLACEBO"	0	"PLACEBO"	"PLACEBO"	0	"Y"	"Y"	"Y"	"Y"	"ECOG=0"	0	"ECOG=0"	0	2009-08-03	"2009-08-03"	12:25:00	"12:25"	2009-08-04	"2009-08-04"	2010-02-09	"2010-02-09"	"ECOG=0 or ECOG=1"	0	"DM"	"Years"	"2009-08-03T12:25"	11:50:00	"11:50"	15:52:00	"15:52"
"134"	"77"	"EFC6546"	"006546-206-108-302"	"206108302"	"ECOG=0 or ECOG=1"	0	"M"	1	"CAUCASIAN/WHITE"	1	"PLACEBO"	"PLACEBO"	0	"PLACEBO"	"PLACEBO"	0	"Y"	"Y"	"Y"	"Y"	"ECOG=0"	0	"ECOG=0"	0	2009-12-15	"2009-12-15"	15:08:00	"15:08"	2009-12-16	"2009-12-16"	2010-11-12	"2010-11-12"	"ECOG=0 or ECOG=1"	0	"DM"	"Years"	"2009-12-15T15:08"	13:55:00	"13:55"	15:15:00	"15:15"
"135"	"62"	"EFC6546"	"006546-206-108-401"	"206108401"	"ECOG=0 or ECOG=1"	0	"M"	1	"CAUCASIAN/WHITE"	1	"PLACEBO"	"PLACEBO"	0	"PLACEBO"	"PLACEBO"	0	"Y"	"Y"	"Y"	"Y"	"ECOG=1"	1	"ECOG=1"	1	2008-12-01	"2008-12-01"	14:44:00	"14:44"	2008-12-03	"2008-12-03"	2009-06-10	"2009-06-10"	"ECOG=0 or ECOG=1"	0	"DM"	"Years"	"2008-12-01T14:44"	13:58:00	"13:58"	NA	""
"136"	"69"	"EFC6546"	"006546-206-108-601"	"206108601"	"ECOG=0 or ECOG=1"	0	"M"	1	"CAUCASIAN/WHITE"	1	"PLACEBO"	"PLACEBO"	0	"PLACEBO"	"PLACEBO"	0	"Y"	"Y"	"Y"	"Y"	"ECOG=0"	0	"ECOG=0"	0	2009-01-26	"2009-01-26"	12:33:00	"12:33"	2009-01-27	"2009-01-27"	2009-03-31	"2009-03-31"	"ECOG=0 or ECOG=1"	0	"DM"	"Years"	"2009-01-26T12:33"	13:20:00	"13:20"	NA	""
"137"	"64"	"EFC6546"	"006546-206-108-801"	"206108801"	"ECOG=0 or ECOG=1"	0	"M"	1	"CAUCASIAN/WHITE"	1	"PLACEBO"	"PLACEBO"	0	"PLACEBO"	"PLACEBO"	0	"Y"	"Y"	"Y"	"Y"	"ECOG=0"	0	"ECOG=0"	0	2009-05-06	"2009-05-06"	10:52:00	"10:52"	2009-05-07	"2009-05-07"	2009-12-04	"2009-12-04"	"ECOG=0 or ECOG=1"	0	"DM"	"Years"	"2009-05-06T10:52"	11:30:00	"11:30"	NA	""
"138"	"69"	"EFC6546"	"006546-206-108-901"	"206108901"	"ECOG=0 or ECOG=1"	0	"M"	1	"CAUCASIAN/WHITE"	1	"PLACEBO"	"PLACEBO"	0	"PLACEBO"	"PLACEBO"	0	"Y"	"Y"	"Y"	"Y"	"ECOG=1"	1	"ECOG=1"	1	2009-07-20	"2009-07-20"	14:34:00	"14:34"	2009-07-21	"2009-07-21"	2010-01-08	"2010-01-08"	"ECOG=0 or ECOG=1"	0	"DM"	"Years"	"2009-07-20T14:34"	12:25:00	"12:25"	NA	""
"139"	"69"	"EFC6546"	"006546-206-198-401"	"206198401"	""	NA	"M"	1	"CAUCASIAN/WHITE"	1	"SCRNFAIL"	"SCREEN FAILURE"	NA	"SCRNFAIL"	"SCREEN FAILURE"	NA	"N"	"N"	"N"	"N"	""	NA	""	NA	NA	""	NA	""	NA	""	NA	""	""	NA	"DM"	"Years"	""	NA	""	NA	""
"140"	"74"	"EFC6546"	"006546-206-198-501"	"206198501"	""	NA	"M"	1	"CAUCASIAN/WHITE"	1	"SCRNFAIL"	"SCREEN FAILURE"	NA	"SCRNFAIL"	"SCREEN FAILURE"	NA	"N"	"N"	"N"	"N"	""	NA	""	NA	NA	""	NA	""	NA	""	NA	""	""	NA	"DM"	"Years"	""	NA	""	NA	""
"141"	"64"	"EFC6546"	"006546-224-101-302"	"224101302"	"ECOG=0 or ECOG=1"	0	"M"	1	"CAUCASIAN/WHITE"	1	"PLACEBO"	"PLACEBO"	0	"PLACEBO"	"PLACEBO"	0	"Y"	"Y"	"Y"	"Y"	"ECOG=1"	1	"ECOG=1"	1	2009-02-19	"2009-02-19"	12:08:00	"12:08"	2009-02-20	"2009-02-20"	2009-07-16	"2009-07-16"	"ECOG=0 or ECOG=1"	0	"DM"	"Years"	"2009-02-19T12:08"	09:55:00	"09:55"	NA	""
"142"	"69"	"EFC6546"	"006546-224-101-501"	"224101501"	"ECOG=0 or ECOG=1"	0	"M"	1	"CAUCASIAN/WHITE"	1	"PLACEBO"	"PLACEBO"	0	"PLACEBO"	"PLACEBO"	0	"Y"	"Y"	"Y"	"Y"	"ECOG=0"	0	"ECOG=0"	0	2008-05-12	"2008-05-12"	14:57:00	"14:57"	2008-05-13	"2008-05-13"	2009-01-29	"2009-01-29"	"ECOG=0 or ECOG=1"	0	"DM"	"Years"	"2008-05-12T14:57"	09:35:00	"09:35"	NA	""
"143"	"69"	"EFC6546"	"006546-224-101-701"	"224101701"	"ECOG=0 or ECOG=1"	0	"M"	1	"CAUCASIAN/WHITE"	1	"PLACEBO"	"PLACEBO"	0	"PLACEBO"	"PLACEBO"	0	"Y"	"Y"	"Y"	"Y"	"ECOG=1"	1	"ECOG=1"	1	2008-05-14	"2008-05-14"	16:46:00	"16:46"	2008-05-16	"2008-05-16"	2008-12-04	"2008-12-04"	"ECOG=0 or ECOG=1"	0	"DM"	"Years"	"2008-05-14T16:46"	09:30:00	"09:30"	NA	""
"144"	"65"	"EFC6546"	"006546-224-101-801"	"224101801"	"ECOG=2"	1	"M"	1	"ASIAN/ORIENTAL"	3	"PLACEBO"	"PLACEBO"	0	"PLACEBO"	"PLACEBO"	0	"Y"	"Y"	"Y"	"Y"	"ECOG=2"	2	"ECOG=2"	2	2008-07-11	"2008-07-11"	11:54:00	"11:54"	2008-07-14	"2008-07-14"	2008-09-18	"2008-09-18"	"ECOG=2"	1	"DM"	"Years"	"2008-07-11T11:54"	10:35:00	"10:35"	NA	""
"145"	"58"	"EFC6546"	"006546-224-101-901"	"224101901"	"ECOG=0 or ECOG=1"	0	"M"	1	"CAUCASIAN/WHITE"	1	"PLACEBO"	"PLACEBO"	0	"PLACEBO"	"PLACEBO"	0	"Y"	"Y"	"Y"	"Y"	"ECOG=1"	1	"ECOG=1"	1	2008-08-12	"2008-08-12"	15:06:00	"15:06"	2008-08-13	"2008-08-13"	2008-12-17	"2008-12-17"	"ECOG=0 or ECOG=1"	0	"DM"	"Years"	"2008-08-12T15:06"	09:00:00	"09:00"	NA	""
"146"	"74"	"EFC6546"	"006546-224-191-401"	"224191401"	""	NA	"M"	1	"CAUCASIAN/WHITE"	1	"SCRNFAIL"	"SCREEN FAILURE"	NA	"SCRNFAIL"	"SCREEN FAILURE"	NA	"N"	"N"	"N"	"N"	""	NA	""	NA	NA	""	NA	""	NA	""	NA	""	""	NA	"DM"	"Years"	""	NA	""	NA	""
"147"	"78"	"EFC6546"	"006546-224-191-501"	"224191501"	""	NA	"M"	1	"CAUCASIAN/WHITE"	1	"SCRNFAIL"	"SCREEN FAILURE"	NA	"SCRNFAIL"	"SCREEN FAILURE"	NA	"N"	"N"	"N"	"N"	""	NA	""	NA	NA	""	NA	""	NA	""	NA	""	""	NA	"DM"	"Years"	""	NA	""	NA	""
"148"	"73"	"EFC6546"	"006546-230-006-501"	"230006501"	"ECOG=2"	1	"M"	1	"CAUCASIAN/WHITE"	1	"PLACEBO"	"PLACEBO"	0	"PLACEBO"	"PLACEBO"	0	"Y"	"Y"	"Y"	"Y"	"ECOG=2"	2	"ECOG=2"	2	2008-05-21	"2008-05-21"	16:25:00	"16:25"	2008-05-21	"2008-05-21"	2008-11-27	"2008-11-27"	"ECOG=2"	1	"DM"	"Years"	"2008-05-21T16:25"	17:54:00	"17:54"	NA	""
"149"	"55"	"EFC6546"	"006546-230-006-701"	"230006701"	"ECOG=0 or ECOG=1"	0	"M"	1	"CAUCASIAN/WHITE"	1	"PLACEBO"	"PLACEBO"	0	"PLACEBO"	"PLACEBO"	0	"Y"	"Y"	"Y"	"Y"	"ECOG=1"	1	"ECOG=1"	1	2008-08-26	"2008-08-26"	09:23:00	"09:23"	2008-08-26	"2008-08-26"	2008-09-16	"2008-09-16"	"ECOG=0 or ECOG=1"	0	"DM"	"Years"	"2008-08-26T09:23"	10:35:00	"10:35"	NA	""
"150"	"69"	"EFC6546"	"006546-230-096-401"	"230096401"	""	NA	"M"	1	"CAUCASIAN/WHITE"	1	"SCRNFAIL"	"SCREEN FAILURE"	NA	"SCRNFAIL"	"SCREEN FAILURE"	NA	"N"	"N"	"N"	"N"	""	NA	""	NA	NA	""	NA	""	NA	""	NA	""	""	NA	"DM"	"Years"	""	NA	""	NA	""
"151"	"77"	"EFC6546"	"006546-230-096-501"	"230096501"	""	NA	"M"	1	"CAUCASIAN/WHITE"	1	"SCRNFAIL"	"SCREEN FAILURE"	NA	"SCRNFAIL"	"SCREEN FAILURE"	NA	"N"	"N"	"N"	"N"	""	NA	""	NA	NA	""	NA	""	NA	""	NA	""	""	NA	"DM"	"Years"	""	NA	""	NA	""
"152"	"71"	"EFC6546"	"006546-230-096-601"	"230096601"	""	NA	"M"	1	"CAUCASIAN/WHITE"	1	"SCRNFAIL"	"SCREEN FAILURE"	NA	"SCRNFAIL"	"SCREEN FAILURE"	NA	"N"	"N"	"N"	"N"	""	NA	""	NA	NA	""	NA	""	NA	""	NA	""	""	NA	"DM"	"Years"	""	NA	""	NA	""
"153"	"66"	"EFC6546"	"006546-230-096-701"	"230096701"	""	NA	"M"	1	"CAUCASIAN/WHITE"	1	"SCRNFAIL"	"SCREEN FAILURE"	NA	"SCRNFAIL"	"SCREEN FAILURE"	NA	"N"	"N"	"N"	"N"	""	NA	""	NA	NA	""	NA	""	NA	""	NA	""	""	NA	"DM"	"Years"	""	NA	""	NA	""
"154"	"74"	"EFC6546"	"006546-234-007-102"	"234007102"	"ECOG=0 or ECOG=1"	0	"M"	1	"CAUCASIAN/WHITE"	1	"PLACEBO"	"PLACEBO"	0	"PLACEBO"	"PLACEBO"	0	"Y"	"Y"	"Y"	"Y"	"ECOG=0"	0	"ECOG=0"	0	2009-06-23	"2009-06-23"	16:46:00	"16:46"	2009-06-25	"2009-06-25"	2010-01-05	"2010-01-05"	"ECOG=0 or ECOG=1"	0	"DM"	"Years"	"2009-06-23T16:46"	14:30:00	"14:30"	NA	""
"155"	"75"	"EFC6546"	"006546-234-007-501"	"234007501"	"ECOG=0 or ECOG=1"	0	"M"	1	"CAUCASIAN/WHITE"	1	"PLACEBO"	"PLACEBO"	0	"PLACEBO"	"PLACEBO"	0	"Y"	"Y"	"Y"	"Y"	"ECOG=1"	1	"ECOG=1"	1	2008-10-01	"2008-10-01"	09:48:00	"09:48"	2008-10-01	"2008-10-01"	2009-05-26	"2009-05-26"	"ECOG=0 or ECOG=1"	0	"DM"	"Years"	"2008-10-01T09:48"	10:30:00	"10:30"	NA	""
"156"	"59"	"EFC6546"	"006546-234-007-701"	"234007701"	"ECOG=0 or ECOG=1"	0	"M"	1	"CAUCASIAN/WHITE"	1	"PLACEBO"	"PLACEBO"	0	"PLACEBO"	"PLACEBO"	0	"Y"	"Y"	"Y"	"Y"	"ECOG=0"	0	"ECOG=0"	0	2008-12-04	"2008-12-04"	10:32:00	"10:32"	2008-12-04	"2008-12-04"	2009-06-10	"2009-06-10"	"ECOG=0 or ECOG=1"	0	"DM"	"Years"	"2008-12-04T10:32"	13:00:00	"13:00"	NA	""
"157"	"75"	"EFC6546"	"006546-234-007-801"	"234007801"	"ECOG=0 or ECOG=1"	0	"M"	1	"CAUCASIAN/WHITE"	1	"PLACEBO"	"PLACEBO"	0	"PLACEBO"	"PLACEBO"	0	"Y"	"Y"	"Y"	"Y"	"ECOG=0"	0	"ECOG=0"	0	2009-02-16	"2009-02-16"	13:21:00	"13:21"	2009-02-18	"2009-02-18"	2009-09-02	"2009-09-02"	"ECOG=0 or ECOG=1"	0	"DM"	"Years"	"2009-02-16T13:21"	11:30:00	"11:30"	NA	""
"158"	"75"	"EFC6546"	"006546-234-007-901"	"234007901"	"ECOG=0 or ECOG=1"	0	"M"	1	"CAUCASIAN/WHITE"	1	"PLACEBO"	"PLACEBO"	0	"NOTASSGN"	"Not Assigned"	-1	"Y"	"N"	"N"	"Y"	"ECOG=0"	0	"ECOG=0"	0	2009-04-09	"2009-04-09"	11:04:00	"11:04"	NA	""	NA	""	"ECOG=0 or ECOG=1"	0	"DM"	"Years"	"2009-04-09T11:04"	NA	""	NA	""
"159"	"78"	"EFC6546"	"006546-234-097-401"	"234097401"	""	NA	"M"	1	"CAUCASIAN/WHITE"	1	"SCRNFAIL"	"SCREEN FAILURE"	NA	"SCRNFAIL"	"SCREEN FAILURE"	NA	"N"	"N"	"N"	"N"	""	NA	""	NA	NA	""	NA	""	NA	""	NA	""	""	NA	"DM"	"Years"	""	NA	""	NA	""
"160"	"76"	"EFC6546"	"006546-234-097-501"	"234097501"	""	NA	"M"	1	"CAUCASIAN/WHITE"	1	"SCRNFAIL"	"SCREEN FAILURE"	NA	"SCRNFAIL"	"SCREEN FAILURE"	NA	"N"	"N"	"N"	"N"	""	NA	""	NA	NA	""	NA	""	NA	""	NA	""	""	NA	"DM"	"Years"	""	NA	""	NA	""
"161"	"60"	"EFC6546"	"006546-236-008-002"	"236008002"	"ECOG=0 or ECOG=1"	0	"M"	1	"CAUCASIAN/WHITE"	1	"PLACEBO"	"PLACEBO"	0	"PLACEBO"	"PLACEBO"	0	"Y"	"Y"	"Y"	"Y"	"ECOG=0"	0	"ECOG=0"	0	2009-02-20	"2009-02-20"	12:51:00	"12:51"	2009-02-24	"2009-02-24"	2009-05-13	"2009-05-13"	"ECOG=0 or ECOG=1"	0	"DM"	"Years"	"2009-02-20T12:51"	12:10:00	"12:10"	NA	""
"162"	"72"	"EFC6546"	"006546-236-008-401"	"236008401"	"ECOG=0 or ECOG=1"	0	"M"	1	"CAUCASIAN/WHITE"	1	"PLACEBO"	"PLACEBO"	0	"PLACEBO"	"PLACEBO"	0	"Y"	"Y"	"Y"	"Y"	"ECOG=0"	0	"ECOG=0"	0	2008-06-27	"2008-06-27"	13:21:00	"13:21"	2008-07-01	"2008-07-01"	2009-01-06	"2009-01-06"	"ECOG=0 or ECOG=1"	0	"DM"	"Years"	"2008-06-27T13:21"	11:30:00	"11:30"	NA	""
"163"	"58"	"EFC6546"	"006546-236-008-402"	"236008402"	"ECOG=0 or ECOG=1"	0	"M"	1	"CAUCASIAN/WHITE"	1	"PLACEBO"	"PLACEBO"	0	"PLACEBO"	"PLACEBO"	0	"Y"	"Y"	"Y"	"Y"	"ECOG=0"	0	"ECOG=0"	0	2009-07-21	"2009-07-21"	09:05:00	"09:05"	2009-07-22	"2009-07-22"	2010-02-10	"2010-02-10"	"ECOG=0 or ECOG=1"	0	"DM"	"Years"	"2009-07-21T09:05"	10:50:00	"10:50"	NA	""
"164"	"77"	"EFC6546"	"006546-236-008-501"	"236008501"	"ECOG=0 or ECOG=1"	0	"M"	1	"ASIAN/ORIENTAL"	3	"PLACEBO"	"PLACEBO"	0	"PLACEBO"	"PLACEBO"	0	"Y"	"Y"	"Y"	"Y"	"ECOG=1"	1	"ECOG=1"	1	2008-09-15	"2008-09-15"	08:06:00	"08:06"	2008-09-16	"2008-09-16"	2009-01-13	"2009-01-13"	"ECOG=0 or ECOG=1"	0	"DM"	"Years"	"2008-09-15T08:06"	13:00:00	"13:00"	NA	""
"165"	"60"	"EFC6546"	"006546-236-008-702"	"236008702"	"ECOG=0 or ECOG=1"	0	"M"	1	"CAUCASIAN/WHITE"	1	"PLACEBO"	"PLACEBO"	0	"PLACEBO"	"PLACEBO"	0	"Y"	"Y"	"Y"	"Y"	"ECOG=0"	0	"ECOG=0"	0	2009-11-23	"2009-11-23"	16:03:00	"16:03"	2009-11-25	"2009-11-25"	2010-06-02	"2010-06-02"	"ECOG=0 or ECOG=1"	0	"DM"	"Years"	"2009-11-23T16:03"	13:05:00	"13:05"	NA	""
"166"	"63"	"EFC6546"	"006546-236-008-802"	"236008802"	"ECOG=0 or ECOG=1"	0	"M"	1	"CAUCASIAN/WHITE"	1	"PLACEBO"	"PLACEBO"	0	"PLACEBO"	"PLACEBO"	0	"Y"	"Y"	"Y"	"Y"	"ECOG=0"	0	"ECOG=0"	0	2009-11-24	"2009-11-24"	10:07:00	"10:07"	2009-11-25	"2009-11-25"	2009-12-16	"2009-12-16"	"ECOG=0 or ECOG=1"	0	"DM"	"Years"	"2009-11-24T10:07"	12:55:00	"12:55"	NA	""
"167"	"52"	"EFC6546"	"006546-236-098-002"	"236098002"	""	NA	"M"	1	"CAUCASIAN/WHITE"	1	"SCRNFAIL"	"SCREEN FAILURE"	NA	"SCRNFAIL"	"SCREEN FAILURE"	NA	"N"	"N"	"N"	"N"	""	NA	""	NA	NA	""	NA	""	NA	""	NA	""	""	NA	"DM"	"Years"	""	NA	""	NA	""
"168"	"69"	"EFC6546"	"006546-236-098-102"	"236098102"	""	NA	"M"	1	"CAUCASIAN/WHITE"	1	"SCRNFAIL"	"SCREEN FAILURE"	NA	"SCRNFAIL"	"SCREEN FAILURE"	NA	"N"	"N"	"N"	"N"	""	NA	""	NA	NA	""	NA	""	NA	""	NA	""	""	NA	"DM"	"Years"	""	NA	""	NA	""
"169"	"57"	"EFC6546"	"006546-236-098-202"	"236098202"	""	NA	"M"	1	"CAUCASIAN/WHITE"	1	"SCRNFAIL"	"SCREEN FAILURE"	NA	"SCRNFAIL"	"SCREEN FAILURE"	NA	"N"	"N"	"N"	"N"	""	NA	""	NA	NA	""	NA	""	NA	""	NA	""	""	NA	"DM"	"Years"	""	NA	""	NA	""
"170"	"55"	"EFC6546"	"006546-236-098-302"	"236098302"	""	NA	"M"	1	"CAUCASIAN/WHITE"	1	"SCRNFAIL"	"SCREEN FAILURE"	NA	"SCRNFAIL"	"SCREEN FAILURE"	NA	"N"	"N"	"N"	"N"	""	NA	""	NA	NA	""	NA	""	NA	""	NA	""	""	NA	"DM"	"Years"	""	NA	""	NA	""
"171"	"68"	"EFC6546"	"006546-236-098-401"	"236098401"	""	NA	"M"	1	"CAUCASIAN/WHITE"	1	"SCRNFAIL"	"SCREEN FAILURE"	NA	"SCRNFAIL"	"SCREEN FAILURE"	NA	"N"	"N"	"N"	"N"	""	NA	""	NA	NA	""	NA	""	NA	""	NA	""	""	NA	"DM"	"Years"	""	NA	""	NA	""
"172"	"60"	"EFC6546"	"006546-236-098-402"	"236098402"	""	NA	"M"	1	"CAUCASIAN/WHITE"	1	"SCRNFAIL"	"SCREEN FAILURE"	NA	"SCRNFAIL"	"SCREEN FAILURE"	NA	"N"	"N"	"N"	"N"	""	NA	""	NA	NA	""	NA	""	NA	""	NA	""	""	NA	"DM"	"Years"	""	NA	""	NA	""
"173"	"64"	"EFC6546"	"006546-236-098-501"	"236098501"	""	NA	"M"	1	"CAUCASIAN/WHITE"	1	"SCRNFAIL"	"SCREEN FAILURE"	NA	"SCRNFAIL"	"SCREEN FAILURE"	NA	"N"	"N"	"N"	"N"	""	NA	""	NA	NA	""	NA	""	NA	""	NA	""	""	NA	"DM"	"Years"	""	NA	""	NA	""
"174"	"56"	"EFC6546"	"006546-236-098-502"	"236098502"	""	NA	"M"	1	"CAUCASIAN/WHITE"	1	"SCRNFAIL"	"SCREEN FAILURE"	NA	"SCRNFAIL"	"SCREEN FAILURE"	NA	"N"	"N"	"N"	"N"	""	NA	""	NA	NA	""	NA	""	NA	""	NA	""	""	NA	"DM"	"Years"	""	NA	""	NA	""
"175"	"69"	"EFC6546"	"006546-236-098-601"	"236098601"	""	NA	"M"	1	"CAUCASIAN/WHITE"	1	"SCRNFAIL"	"SCREEN FAILURE"	NA	"SCRNFAIL"	"SCREEN FAILURE"	NA	"N"	"N"	"N"	"N"	""	NA	""	NA	NA	""	NA	""	NA	""	NA	""	""	NA	"DM"	"Years"	""	NA	""	NA	""
"176"	"55"	"EFC6546"	"006546-236-098-701"	"236098701"	""	NA	"M"	1	"CAUCASIAN/WHITE"	1	"SCRNFAIL"	"SCREEN FAILURE"	NA	"SCRNFAIL"	"SCREEN FAILURE"	NA	"N"	"N"	"N"	"N"	""	NA	""	NA	NA	""	NA	""	NA	""	NA	""	""	NA	"DM"	"Years"	""	NA	""	NA	""
"177"	"66"	"EFC6546"	"006546-236-098-801"	"236098801"	""	NA	"M"	1	"CAUCASIAN/WHITE"	1	"SCRNFAIL"	"SCREEN FAILURE"	NA	"SCRNFAIL"	"SCREEN FAILURE"	NA	"N"	"N"	"N"	"N"	""	NA	""	NA	NA	""	NA	""	NA	""	NA	""	""	NA	"DM"	"Years"	""	NA	""	NA	""
"178"	"60"	"EFC6546"	"006546-236-098-901"	"236098901"	""	NA	"M"	1	"CAUCASIAN/WHITE"	1	"SCRNFAIL"	"SCREEN FAILURE"	NA	"SCRNFAIL"	"SCREEN FAILURE"	NA	"N"	"N"	"N"	"N"	""	NA	""	NA	NA	""	NA	""	NA	""	NA	""	""	NA	"DM"	"Years"	""	NA	""	NA	""
"179"	"63"	"EFC6546"	"006546-240-006-401"	"240006401"	"ECOG=0 or ECOG=1"	0	"M"	1	"CAUCASIAN/WHITE"	1	"PLACEBO"	"PLACEBO"	0	"PLACEBO"	"PLACEBO"	0	"Y"	"Y"	"Y"	"Y"	"ECOG=1"	1	"ECOG=1"	1	2008-04-01	"2008-04-01"	13:40:00	"13:40"	2008-04-02	"2008-04-02"	2008-10-22	"2008-10-22"	"ECOG=0 or ECOG=1"	0	"DM"	"Years"	"2008-04-01T13:40"	11:00:00	"11:00"	NA	""
"180"	"76"	"EFC6546"	"006546-240-006-601"	"240006601"	"ECOG=0 or ECOG=1"	0	"M"	1	"CAUCASIAN/WHITE"	1	"PLACEBO"	"PLACEBO"	0	"PLACEBO"	"PLACEBO"	0	"Y"	"Y"	"Y"	"Y"	"ECOG=0"	0	"ECOG=0"	0	2009-02-02	"2009-02-02"	11:42:00	"11:42"	2009-02-02	"2009-02-02"	2010-07-12	"2010-07-12"	"ECOG=0 or ECOG=1"	0	"DM"	"Years"	"2009-02-02T11:42"	12:00:00	"12:00"	NA	""
"181"	"72"	"EFC6546"	"006546-240-006-801"	"240006801"	"ECOG=0 or ECOG=1"	0	"M"	1	"CAUCASIAN/WHITE"	1	"PLACEBO"	"PLACEBO"	0	"PLACEBO"	"PLACEBO"	0	"Y"	"Y"	"Y"	"Y"	"ECOG=0"	0	"ECOG=0"	0	2009-06-22	"2009-06-22"	10:38:00	"10:38"	2009-06-22	"2009-06-22"	2010-03-08	"2010-03-08"	"ECOG=0 or ECOG=1"	0	"DM"	"Years"	"2009-06-22T10:38"	11:00:00	"11:00"	NA	""
"182"	"78"	"EFC6546"	"006546-240-096-401"	"240096401"	""	NA	"M"	1	"CAUCASIAN/WHITE"	1	"SCRNFAIL"	"SCREEN FAILURE"	NA	"SCRNFAIL"	"SCREEN FAILURE"	NA	"N"	"N"	"N"	"N"	""	NA	""	NA	NA	""	NA	""	NA	""	NA	""	""	NA	"DM"	"Years"	""	NA	""	NA	""
"183"	"59"	"EFC6546"	"006546-244-007-401"	"244007401"	"ECOG=0 or ECOG=1"	0	"M"	1	"CAUCASIAN/WHITE"	1	"PLACEBO"	"PLACEBO"	0	"PLACEBO"	"PLACEBO"	0	"Y"	"Y"	"Y"	"Y"	"ECOG=1"	1	"ECOG=1"	1	2008-01-17	"2008-01-17"	09:43:00	"09:43"	2008-01-17	"2008-01-17"	2008-06-20	"2008-06-20"	"ECOG=0 or ECOG=1"	0	"DM"	"Years"	"2008-01-17T09:43"	11:00:00	"11:00"	NA	""
"184"	"78"	"EFC6546"	"006546-244-007-501"	"244007501"	"ECOG=0 or ECOG=1"	0	"M"	1	"CAUCASIAN/WHITE"	1	"PLACEBO"	"PLACEBO"	0	"PLACEBO"	"PLACEBO"	0	"Y"	"Y"	"Y"	"Y"	"ECOG=1"	1	"ECOG=1"	1	2009-10-06	"2009-10-06"	10:06:00	"10:06"	2009-10-09	"2009-10-09"	2010-07-07	"2010-07-07"	"ECOG=0 or ECOG=1"	0	"DM"	"Years"	"2009-10-06T10:06"	11:15:00	"11:15"	NA	""
"185"	"59"	"EFC6546"	"006546-244-097-401"	"244097401"	""	NA	"M"	1	"CAUCASIAN/WHITE"	1	"SCRNFAIL"	"SCREEN FAILURE"	NA	"SCRNFAIL"	"SCREEN FAILURE"	NA	"N"	"N"	"N"	"N"	""	NA	""	NA	NA	""	NA	""	NA	""	NA	""	""	NA	"DM"	"Years"	""	NA	""	NA	""
"186"	"71"	"EFC6546"	"006546-244-097-501"	"244097501"	""	NA	"M"	1	"CAUCASIAN/WHITE"	1	"SCRNFAIL"	"SCREEN FAILURE"	NA	"SCRNFAIL"	"SCREEN FAILURE"	NA	"N"	"N"	"N"	"N"	""	NA	""	NA	NA	""	NA	""	NA	""	NA	""	""	NA	"DM"	"Years"	""	NA	""	NA	""
"187"	"73"	"EFC6546"	"006546-246-008-002"	"246008002"	"ECOG=0 or ECOG=1"	0	"M"	1	"CAUCASIAN/WHITE"	1	"PLACEBO"	"PLACEBO"	0	"PLACEBO"	"PLACEBO"	0	"Y"	"Y"	"Y"	"Y"	"ECOG=1"	1	"ECOG=1"	1	2008-09-22	"2008-09-22"	12:12:00	"12:12"	2008-09-24	"2008-09-24"	2009-01-28	"2009-01-28"	"ECOG=0 or ECOG=1"	0	"DM"	"Years"	"2008-09-22T12:12"	11:10:00	"11:10"	NA	""
"188"	"74"	"EFC6546"	"006546-246-008-402"	"246008402"	"ECOG=0 or ECOG=1"	0	"M"	1	"CAUCASIAN/WHITE"	1	"PLACEBO"	"PLACEBO"	0	"PLACEBO"	"PLACEBO"	0	"Y"	"Y"	"Y"	"Y"	"ECOG=0"	0	"ECOG=0"	0	2008-11-14	"2008-11-14"	09:07:00	"09:07"	2008-11-17	"2008-11-17"	2009-01-21	"2009-01-21"	"ECOG=0 or ECOG=1"	0	"DM"	"Years"	"2008-11-14T09:07"	13:00:00	"13:00"	NA	""
"189"	"75"	"EFC6546"	"006546-246-008-501"	"246008501"	"ECOG=0 or ECOG=1"	0	"M"	1	"CAUCASIAN/WHITE"	1	"PLACEBO"	"PLACEBO"	0	"PLACEBO"	"PLACEBO"	0	"Y"	"Y"	"Y"	"Y"	"ECOG=1"	1	"ECOG=1"	1	2008-07-15	"2008-07-15"	13:03:00	"13:03"	2008-07-17	"2008-07-17"	2008-12-03	"2008-12-03"	"ECOG=0 or ECOG=1"	0	"DM"	"Years"	"2008-07-15T13:03"	13:30:00	"13:30"	NA	""
"190"	"83"	"EFC6546"	"006546-246-008-502"	"246008502"	"ECOG=0 or ECOG=1"	0	"M"	1	"CAUCASIAN/WHITE"	1	"PLACEBO"	"PLACEBO"	0	"PLACEBO"	"PLACEBO"	0	"Y"	"Y"	"Y"	"Y"	"ECOG=1"	1	"ECOG=1"	1	2008-11-24	"2008-11-24"	12:18:00	"12:18"	2008-11-27	"2008-11-27"	2009-01-08	"2009-01-08"	"ECOG=0 or ECOG=1"	0	"DM"	"Years"	"2008-11-24T12:18"	13:10:00	"13:10"	NA	""
"191"	"59"	"EFC6546"	"006546-246-008-901"	"246008901"	"ECOG=0 or ECOG=1"	0	"M"	1	"CAUCASIAN/WHITE"	1	"PLACEBO"	"PLACEBO"	0	"PLACEBO"	"PLACEBO"	0	"Y"	"Y"	"Y"	"Y"	"ECOG=0"	0	"ECOG=0"	0	2008-09-15	"2008-09-15"	08:48:00	"08:48"	2008-09-16	"2008-09-16"	2009-03-24	"2009-03-24"	"ECOG=0 or ECOG=1"	0	"DM"	"Years"	"2008-09-15T08:48"	11:40:00	"11:40"	NA	"XX:XX"
"192"	"52"	"EFC6546"	"006546-246-098-401"	"246098401"	""	NA	"M"	1	"CAUCASIAN/WHITE"	1	"SCRNFAIL"	"SCREEN FAILURE"	NA	"SCRNFAIL"	"SCREEN FAILURE"	NA	"N"	"N"	"N"	"N"	""	NA	""	NA	NA	""	NA	""	NA	""	NA	""	""	NA	"DM"	"Years"	""	NA	""	NA	""
"193"	"66"	"EFC6546"	"006546-248-005-401"	"248005401"	"ECOG=0 or ECOG=1"	0	"M"	1	"CAUCASIAN/WHITE"	1	"PLACEBO"	"PLACEBO"	0	"6 MG"	"AVE0005A"	6	"Y"	"Y"	"Y"	"Y"	"ECOG=1"	1	"ECOG=1"	1	2008-06-10	"2008-06-10"	15:16:00	"15:16"	2008-06-16	"2008-06-16"	2008-12-31	"2008-12-31"	"ECOG=0 or ECOG=1"	0	"DM"	"Years"	"2008-06-10T15:16"	11:30:00	"11:30"	NA	""
"194"	"80"	"EFC6546"	"006546-248-005-801"	"248005801"	"ECOG=0 or ECOG=1"	0	"M"	1	"CAUCASIAN/WHITE"	1	"PLACEBO"	"PLACEBO"	0	"PLACEBO"	"PLACEBO"	0	"Y"	"Y"	"Y"	"Y"	"ECOG=1"	1	"ECOG=1"	1	2009-05-27	"2009-05-27"	13:03:00	"13:03"	2009-05-27	"2009-05-27"	2009-11-11	"2009-11-11"	"ECOG=0 or ECOG=1"	0	"DM"	"Years"	"2009-05-27T13:03"	14:55:00	"14:55"	NA	""
"195"	"66"	"EFC6546"	"006546-248-005-901"	"248005901"	"ECOG=0 or ECOG=1"	0	"M"	1	"CAUCASIAN/WHITE"	1	"PLACEBO"	"PLACEBO"	0	"PLACEBO"	"PLACEBO"	0	"Y"	"Y"	"Y"	"Y"	"ECOG=0"	0	"ECOG=0"	0	2010-01-11	"2010-01-11"	09:24:00	"09:24"	2010-01-11	"2010-01-11"	2010-07-19	"2010-07-19"	"ECOG=0 or ECOG=1"	0	"DM"	"Years"	"2010-01-11T09:24"	11:05:00	"11:05"	NA	""
"196"	"65"	"EFC6546"	"006546-248-095-401"	"248095401"	""	NA	"M"	1	"CAUCASIAN/WHITE"	1	"SCRNFAIL"	"SCREEN FAILURE"	NA	"SCRNFAIL"	"SCREEN FAILURE"	NA	"N"	"N"	"N"	"N"	""	NA	""	NA	NA	""	NA	""	NA	""	NA	""	""	NA	"DM"	"Years"	""	NA	""	NA	""
"197"	"61"	"EFC6546"	"006546-250-006-501"	"250006501"	"ECOG=0 or ECOG=1"	0	"M"	1	"CAUCASIAN/WHITE"	1	"PLACEBO"	"PLACEBO"	0	"PLACEBO"	"PLACEBO"	0	"Y"	"Y"	"Y"	"Y"	"ECOG=0"	0	"ECOG=0"	0	2008-03-13	"2008-03-13"	11:07:00	"11:07"	2008-03-14	"2008-03-14"	2009-01-02	"2009-01-02"	"ECOG=0 or ECOG=1"	0	"DM"	"Years"	"2008-03-13T11:07"	NA	"XX:XX"	17:17:00	"17:17"
"198"	"63"	"EFC6546"	"006546-250-006-701"	"250006701"	"ECOG=0 or ECOG=1"	0	"M"	1	"CAUCASIAN/WHITE"	1	"PLACEBO"	"PLACEBO"	0	"PLACEBO"	"PLACEBO"	0	"Y"	"Y"	"Y"	"Y"	"ECOG=0"	0	"ECOG=0"	0	2008-05-06	"2008-05-06"	11:41:00	"11:41"	2008-05-06	"2008-05-06"	2008-12-04	"2008-12-04"	"ECOG=0 or ECOG=1"	0	"DM"	"Years"	"2008-05-06T11:41"	17:40:00	"17:40"	16:30:00	"16:30"
"199"	"62"	"EFC6546"	"006546-250-006-901"	"250006901"	"ECOG=0 or ECOG=1"	0	"M"	1	"CAUCASIAN/WHITE"	1	"PLACEBO"	"PLACEBO"	0	"PLACEBO"	"PLACEBO"	0	"Y"	"Y"	"Y"	"Y"	"ECOG=0"	0	"ECOG=0"	0	2008-09-23	"2008-09-23"	16:24:00	"16:24"	2008-09-26	"2008-09-26"	2009-06-05	"2009-06-05"	"ECOG=0 or ECOG=1"	0	"DM"	"Years"	"2008-09-23T16:24"	13:15:00	"13:15"	19:55:00	"19:55"
"200"	"76"	"EFC6546"	"006546-250-096-401"	"250096401"	""	NA	"M"	1	"CAUCASIAN/WHITE"	1	"SCRNFAIL"	"SCREEN FAILURE"	NA	"SCRNFAIL"	"SCREEN FAILURE"	NA	"N"	"N"	"N"	"N"	""	NA	""	NA	NA	""	NA	""	NA	""	NA	""	""	NA	"DM"	"Years"	""	NA	""	NA	""
"201"	"74"	"EFC6546"	"006546-254-001-801"	"254001801"	"ECOG=0 or ECOG=1"	0	"M"	1	"CAUCASIAN/WHITE"	1	"PLACEBO"	"PLACEBO"	0	"PLACEBO"	"PLACEBO"	0	"Y"	"Y"	"Y"	"Y"	"ECOG=1"	1	"ECOG=1"	1	2009-09-09	"2009-09-09"	09:59:00	"09:59"	2009-09-09	"2009-09-09"	2009-12-23	"2009-12-23"	"ECOG=0 or ECOG=1"	0	"DM"	"Years"	"2009-09-09T09:59"	10:40:00	"10:40"	NA	""
"202"	"56"	"EFC6546"	"006546-254-001-901"	"254001901"	"ECOG=0 or ECOG=1"	0	"M"	1	"CAUCASIAN/WHITE"	1	"PLACEBO"	"PLACEBO"	0	"PLACEBO"	"PLACEBO"	0	"Y"	"Y"	"Y"	"Y"	"ECOG=1"	1	"ECOG=1"	1	2009-12-21	"2009-12-21"	08:14:00	"08:14"	2009-12-21	"2009-12-21"	2009-12-21	"2009-12-21"	"ECOG=0 or ECOG=1"	0	"DM"	"Years"	"2009-12-21T08:14"	09:35:00	"09:35"	NA	""
"203"	"76"	"EFC6546"	"006546-254-007-202"	"254007202"	"ECOG=0 or ECOG=1"	0	"M"	1	"CAUCASIAN/WHITE"	1	"PLACEBO"	"PLACEBO"	0	"PLACEBO"	"PLACEBO"	0	"Y"	"Y"	"Y"	"Y"	"ECOG=1"	1	"ECOG=1"	1	2009-07-27	"2009-07-27"	15:51:00	"15:51"	2009-07-28	"2009-07-28"	2010-04-27	"2010-04-27"	"ECOG=0 or ECOG=1"	0	"DM"	"Years"	"2009-07-27T15:51"	11:20:00	"11:20"	11:20:00	"11:20"
"204"	"81"	"EFC6546"	"006546-254-007-501"	"254007501"	"ECOG=0 or ECOG=1"	0	"M"	1	"CAUCASIAN/WHITE"	1	"PLACEBO"	"PLACEBO"	0	"PLACEBO"	"PLACEBO"	0	"Y"	"Y"	"Y"	"Y"	"ECOG=0"	0	"ECOG=0"	0	2008-03-31	"2008-03-31"	09:11:00	"09:11"	2008-04-01	"2008-04-01"	2008-09-18	"2008-09-18"	"ECOG=0 or ECOG=1"	0	"DM"	"Years"	"2008-03-31T09:11"	13:30:00	"13:30"	NA	""
"205"	"60"	"EFC6546"	"006546-254-007-601"	"254007601"	"ECOG=0 or ECOG=1"	0	"M"	1	"CAUCASIAN/WHITE"	1	"PLACEBO"	"PLACEBO"	0	"6 MG"	"AVE0005A"	6	"Y"	"Y"	"Y"	"Y"	"ECOG=0"	0	"ECOG=0"	0	2008-04-28	"2008-04-28"	10:48:00	"10:48"	2008-04-28	"2008-04-28"	2008-09-02	"2008-09-02"	"ECOG=0 or ECOG=1"	0	"DM"	"Years"	"2008-04-28T10:48"	NA	"XX:XX"	NA	""
"206"	"68"	"EFC6546"	"006546-254-007-701"	"254007701"	"ECOG=0 or ECOG=1"	0	"M"	1	"CAUCASIAN/WHITE"	1	"PLACEBO"	"PLACEBO"	0	"PLACEBO"	"PLACEBO"	0	"Y"	"Y"	"Y"	"Y"	"ECOG=1"	1	"ECOG=1"	1	2008-12-02	"2008-12-02"	09:55:00	"09:55"	2008-12-02	"2008-12-02"	2009-07-23	"2009-07-23"	"ECOG=0 or ECOG=1"	0	"DM"	"Years"	"2008-12-02T09:55"	13:00:00	"13:00"	NA	"XX:XX"
"207"	"75"	"EFC6546"	"006546-254-091-401"	"254091401"	""	NA	"M"	1	"CAUCASIAN/WHITE"	1	"SCRNFAIL"	"SCREEN FAILURE"	NA	"SCRNFAIL"	"SCREEN FAILURE"	NA	"N"	"N"	"N"	"N"	""	NA	""	NA	NA	""	NA	""	NA	""	NA	""	""	NA	"DM"	"Years"	""	NA	""	NA	""
"208"	"61"	"EFC6546"	"006546-254-091-501"	"254091501"	""	NA	"M"	1	"CAUCASIAN/WHITE"	1	"SCRNFAIL"	"SCREEN FAILURE"	NA	"SCRNFAIL"	"SCREEN FAILURE"	NA	"N"	"N"	"N"	"N"	""	NA	""	NA	NA	""	NA	""	NA	""	NA	""	""	NA	"DM"	"Years"	""	NA	""	NA	""
"209"	"58"	"EFC6546"	"006546-254-091-601"	"254091601"	""	NA	"M"	1	"CAUCASIAN/WHITE"	1	"SCRNFAIL"	"SCREEN FAILURE"	NA	"SCRNFAIL"	"SCREEN FAILURE"	NA	"N"	"N"	"N"	"N"	""	NA	""	NA	NA	""	NA	""	NA	""	NA	""	""	NA	"DM"	"Years"	""	NA	""	NA	""
"210"	"66"	"EFC6546"	"006546-254-091-701"	"254091701"	""	NA	"M"	1	"CAUCASIAN/WHITE"	1	"SCRNFAIL"	"SCREEN FAILURE"	NA	"SCRNFAIL"	"SCREEN FAILURE"	NA	"N"	"N"	"N"	"N"	""	NA	""	NA	NA	""	NA	""	NA	""	NA	""	""	NA	"DM"	"Years"	""	NA	""	NA	""
"211"	"66"	"EFC6546"	"006546-256-008-002"	"256008002"	"ECOG=0 or ECOG=1"	0	"M"	1	"CAUCASIAN/WHITE"	1	"PLACEBO"	"PLACEBO"	0	"PLACEBO"	"PLACEBO"	0	"Y"	"Y"	"Y"	"Y"	"ECOG=0"	0	"ECOG=0"	0	2010-01-28	"2010-01-28"	15:35:00	"15:35"	2010-01-29	"2010-01-29"	2011-01-28	"2011-01-28"	"ECOG=0 or ECOG=1"	0	"DM"	"Years"	"2010-01-28T15:35"	10:45:00	"10:45"	12:29:00	"12:29"
"212"	"74"	"EFC6546"	"006546-256-008-401"	"256008401"	"ECOG=2"	1	"M"	1	"CAUCASIAN/WHITE"	1	"PLACEBO"	"PLACEBO"	0	"PLACEBO"	"PLACEBO"	0	"Y"	"Y"	"Y"	"Y"	"ECOG=2"	2	"ECOG=2"	2	2008-08-14	"2008-08-14"	12:26:00	"12:26"	2008-08-15	"2008-08-15"	2008-12-05	"2008-12-05"	"ECOG=2"	1	"DM"	"Years"	"2008-08-14T12:26"	11:18:00	"11:18"	NA	""
"213"	"68"	"EFC6546"	"006546-256-008-601"	"256008601"	"ECOG=0 or ECOG=1"	0	"M"	1	"CAUCASIAN/WHITE"	1	"PLACEBO"	"PLACEBO"	0	"PLACEBO"	"PLACEBO"	0	"Y"	"Y"	"Y"	"Y"	"ECOG=1"	1	"ECOG=1"	1	2009-10-15	"2009-10-15"	16:13:00	"16:13"	2009-10-16	"2009-10-16"	2009-12-24	"2009-12-24"	"ECOG=0 or ECOG=1"	0	"DM"	"Years"	"2009-10-15T16:13"	12:50:00	"12:50"	11:55:00	"11:55"
"214"	"74"	"EFC6546"	"006546-258-005-401"	"258005401"	"ECOG=0 or ECOG=1"	0	"M"	1	"CAUCASIAN/WHITE"	1	"PLACEBO"	"PLACEBO"	0	"PLACEBO"	"PLACEBO"	0	"Y"	"Y"	"Y"	"Y"	"ECOG=0"	0	"ECOG=0"	0	2008-07-15	"2008-07-15"	12:37:00	"12:37"	2008-07-17	"2008-07-17"	2008-10-09	"2008-10-09"	"ECOG=0 or ECOG=1"	0	"DM"	"Years"	"2008-07-15T12:37"	10:50:00	"10:50"	NA	""
"215"	"75"	"EFC6546"	"006546-258-005-501"	"258005501"	"ECOG=0 or ECOG=1"	0	"M"	1	"CAUCASIAN/WHITE"	1	"PLACEBO"	"PLACEBO"	0	"PLACEBO"	"PLACEBO"	0	"Y"	"Y"	"Y"	"Y"	"ECOG=0"	0	"ECOG=0"	0	2008-08-08	"2008-08-08"	10:08:00	"10:08"	2008-08-11	"2008-08-11"	2009-09-14	"2009-09-14"	"ECOG=0 or ECOG=1"	0	"DM"	"Years"	"2008-08-08T10:08"	10:30:00	"10:30"	NA	""
"216"	"78"	"EFC6546"	"006546-258-005-601"	"258005601"	"ECOG=0 or ECOG=1"	0	"M"	1	"CAUCASIAN/WHITE"	1	"PLACEBO"	"PLACEBO"	0	"PLACEBO"	"PLACEBO"	0	"Y"	"Y"	"Y"	"Y"	"ECOG=1"	1	"ECOG=1"	1	2009-02-09	"2009-02-09"	11:09:00	"11:09"	2009-02-10	"2009-02-10"	2009-08-20	"2009-08-20"	"ECOG=0 or ECOG=1"	0	"DM"	"Years"	"2009-02-09T11:09"	10:10:00	"10:10"	NA	""
"217"	"84"	"EFC6546"	"006546-258-005-701"	"258005701"	"ECOG=0 or ECOG=1"	0	"M"	1	"CAUCASIAN/WHITE"	1	"PLACEBO"	"PLACEBO"	0	"PLACEBO"	"PLACEBO"	0	"Y"	"Y"	"Y"	"Y"	"ECOG=0"	0	"ECOG=0"	0	2009-04-20	"2009-04-20"	12:06:00	"12:06"	2009-04-21	"2009-04-21"	2009-10-27	"2009-10-27"	"ECOG=0 or ECOG=1"	0	"DM"	"Years"	"2009-04-20T12:06"	09:20:00	"09:20"	NA	""
"218"	"78"	"EFC6546"	"006546-258-005-901"	"258005901"	"ECOG=0 or ECOG=1"	0	"M"	1	"CAUCASIAN/WHITE"	1	"PLACEBO"	"PLACEBO"	0	"PLACEBO"	"PLACEBO"	0	"Y"	"Y"	"Y"	"Y"	"ECOG=1"	1	"ECOG=1"	1	2009-06-05	"2009-06-05"	11:35:00	"11:35"	2009-06-08	"2009-06-08"	2009-10-12	"2009-10-12"	"ECOG=0 or ECOG=1"	0	"DM"	"Years"	"2009-06-05T11:35"	10:25:00	"10:25"	NA	""
"219"	"70"	"EFC6546"	"006546-260-006-501"	"260006501"	"ECOG=0 or ECOG=1"	0	"M"	1	"CAUCASIAN/WHITE"	1	"PLACEBO"	"PLACEBO"	0	"PLACEBO"	"PLACEBO"	0	"Y"	"Y"	"Y"	"Y"	"ECOG=0"	0	"ECOG=0"	0	2009-04-13	"2009-04-13"	08:48:00	"08:48"	2009-04-13	"2009-04-13"	2009-09-11	"2009-09-11"	"ECOG=0 or ECOG=1"	0	"DM"	"Years"	"2009-04-13T08:48"	13:15:00	"13:15"	NA	""
"220"	"58"	"EFC6546"	"006546-264-001-002"	"264001002"	"ECOG=0 or ECOG=1"	0	"M"	1	"CAUCASIAN/WHITE"	1	"PLACEBO"	"PLACEBO"	0	"PLACEBO"	"PLACEBO"	0	"Y"	"Y"	"Y"	"Y"	"ECOG=1"	1	"ECOG=1"	1	2008-10-02	"2008-10-02"	08:39:00	"08:39"	2008-10-02	"2008-10-02"	2009-08-20	"2009-08-20"	"ECOG=0 or ECOG=1"	0	"DM"	"Years"	"2008-10-02T08:39"	12:45:00	"12:45"	NA	"XX:XX"
"221"	"71"	"EFC6546"	"006546-264-001-202"	"264001202"	"ECOG=0 or ECOG=1"	0	"M"	1	"CAUCASIAN/WHITE"	1	"PLACEBO"	"PLACEBO"	0	"PLACEBO"	"PLACEBO"	0	"Y"	"Y"	"Y"	"Y"	"ECOG=1"	1	"ECOG=1"	1	2008-10-28	"2008-10-28"	09:20:00	"09:20"	2008-10-29	"2008-10-29"	2009-06-25	"2009-06-25"	"ECOG=0 or ECOG=1"	0	"DM"	"Years"	"2008-10-28T09:20"	10:52:00	"10:52"	11:25:00	"11:25"
"222"	"70"	"EFC6546"	"006546-264-001-302"	"264001302"	"ECOG=0 or ECOG=1"	0	"M"	1	"CAUCASIAN/WHITE"	1	"PLACEBO"	"PLACEBO"	0	"PLACEBO"	"PLACEBO"	0	"Y"	"Y"	"Y"	"Y"	"ECOG=1"	1	"ECOG=1"	1	2008-12-03	"2008-12-03"	17:07:00	"17:07"	2008-12-04	"2008-12-04"	2008-12-04	"2008-12-04"	"ECOG=0 or ECOG=1"	0	"DM"	"Years"	"2008-12-03T17:07"	13:44:00	"13:44"	NA	""
"223"	"83"	"EFC6546"	"006546-264-001-401"	"264001401"	"ECOG=0 or ECOG=1"	0	"M"	1	"OTHER"	99	"PLACEBO"	"PLACEBO"	0	"PLACEBO"	"PLACEBO"	0	"Y"	"Y"	"Y"	"Y"	"ECOG=0"	0	"ECOG=0"	0	2008-03-18	"2008-03-18"	13:54:00	"13:54"	2008-03-19	"2008-03-19"	2008-11-27	"2008-11-27"	"ECOG=0 or ECOG=1"	0	"DM"	"Years"	"2008-03-18T13:54"	12:10:00	"12:10"	12:55:00	"12:55"
"224"	"55"	"EFC6546"	"006546-264-001-402"	"264001402"	"ECOG=0 or ECOG=1"	0	"M"	1	"ASIAN/ORIENTAL"	3	"PLACEBO"	"PLACEBO"	0	"PLACEBO"	"PLACEBO"	0	"Y"	"Y"	"Y"	"Y"	"ECOG=1"	1	"ECOG=1"	1	2009-02-03	"2009-02-03"	15:18:00	"15:18"	2009-02-04	"2009-02-04"	2009-11-13	"2009-11-13"	"ECOG=0 or ECOG=1"	0	"DM"	"Years"	"2009-02-03T15:18"	11:45:00	"11:45"	NA	""
"225"	"74"	"EFC6546"	"006546-264-001-501"	"264001501"	"ECOG=0 or ECOG=1"	0	"M"	1	"CAUCASIAN/WHITE"	1	"PLACEBO"	"PLACEBO"	0	"PLACEBO"	"PLACEBO"	0	"Y"	"Y"	"Y"	"Y"	"ECOG=0"	0	"ECOG=0"	0	2008-04-10	"2008-04-10"	14:12:00	"14:12"	2008-04-11	"2008-04-11"	2008-11-27	"2008-11-27"	"ECOG=0 or ECOG=1"	0	"DM"	"Years"	"2008-04-10T14:12"	12:51:00	"12:51"	NA	""
"226"	"62"	"EFC6546"	"006546-264-001-502"	"264001502"	"ECOG=0 or ECOG=1"	0	"M"	1	"CAUCASIAN/WHITE"	1	"PLACEBO"	"PLACEBO"	0	"PLACEBO"	"PLACEBO"	0	"Y"	"Y"	"Y"	"Y"	"ECOG=1"	1	"ECOG=1"	1	2009-02-05	"2009-02-05"	15:49:00	"15:49"	2009-02-06	"2009-02-06"	2009-11-06	"2009-11-06"	"ECOG=0 or ECOG=1"	0	"DM"	"Years"	"2009-02-05T15:49"	11:00:00	"11:00"	12:27:00	"12:27"
"227"	"62"	"EFC6546"	"006546-264-001-601"	"264001601"	"ECOG=0 or ECOG=1"	0	"M"	1	"CAUCASIAN/WHITE"	1	"PLACEBO"	"PLACEBO"	0	"PLACEBO"	"PLACEBO"	0	"Y"	"Y"	"Y"	"Y"	"ECOG=1"	1	"ECOG=1"	1	2008-05-29	"2008-05-29"	16:29:00	"16:29"	2008-05-30	"2008-05-30"	2008-11-27	"2008-11-27"	"ECOG=0 or ECOG=1"	0	"DM"	"Years"	"2008-05-29T16:29"	11:40:00	"11:40"	NA	""
"228"	"68"	"EFC6546"	"006546-264-001-801"	"264001801"	"ECOG=0 or ECOG=1"	0	"M"	1	"CAUCASIAN/WHITE"	1	"PLACEBO"	"PLACEBO"	0	"PLACEBO"	"PLACEBO"	0	"Y"	"Y"	"Y"	"Y"	"ECOG=1"	1	"ECOG=1"	1	2008-08-05	"2008-08-05"	16:32:00	"16:32"	2008-08-06	"2008-08-06"	2009-02-06	"2009-02-06"	"ECOG=0 or ECOG=1"	0	"DM"	"Years"	"2008-08-05T16:32"	12:50:00	"12:50"	NA	""
"229"	"55"	"EFC6546"	"006546-264-001-802"	"264001802"	"ECOG=0 or ECOG=1"	0	"M"	1	"CAUCASIAN/WHITE"	1	"PLACEBO"	"PLACEBO"	0	"PLACEBO"	"PLACEBO"	0	"Y"	"Y"	"Y"	"Y"	"ECOG=1"	1	"ECOG=1"	1	2010-01-21	"2010-01-21"	11:14:00	"11:14"	2010-01-22	"2010-01-22"	2010-06-11	"2010-06-11"	"ECOG=0 or ECOG=1"	0	"DM"	"Years"	"2010-01-21T11:14"	09:57:00	"09:57"	NA	""
"230"	"60"	"EFC6546"	"006546-264-091-002"	"264091002"	""	NA	"M"	1	"CAUCASIAN/WHITE"	1	"SCRNFAIL"	"SCREEN FAILURE"	NA	"SCRNFAIL"	"SCREEN FAILURE"	NA	"N"	"N"	"N"	"N"	""	NA	""	NA	NA	""	NA	""	NA	""	NA	""	""	NA	"DM"	"Years"	""	NA	""	NA	""
"231"	""	"EFC6546"	"006546-264-091-102"	"264091102"	""	NA	"M"	1	"OTHER"	99	"SCRNFAIL"	"SCREEN FAILURE"	NA	"SCRNFAIL"	"SCREEN FAILURE"	NA	"N"	"N"	"N"	"N"	""	NA	""	NA	NA	""	NA	""	NA	""	NA	""	""	NA	"DM"	"Years"	""	NA	""	NA	""
"232"	""	"EFC6546"	"006546-264-091-401"	"264091401"	""	NA	"M"	1	"OTHER"	99	"SCRNFAIL"	"SCREEN FAILURE"	NA	"SCRNFAIL"	"SCREEN FAILURE"	NA	"N"	"N"	"N"	"N"	""	NA	""	NA	NA	""	NA	""	NA	""	NA	""	""	NA	"DM"	"Years"	""	NA	""	NA	""
"233"	""	"EFC6546"	"006546-264-091-501"	"264091501"	""	NA	"M"	1	"OTHER"	99	"SCRNFAIL"	"SCREEN FAILURE"	NA	"SCRNFAIL"	"SCREEN FAILURE"	NA	"N"	"N"	"N"	"N"	""	NA	""	NA	NA	""	NA	""	NA	""	NA	""	""	NA	"DM"	"Years"	""	NA	""	NA	""
"234"	""	"EFC6546"	"006546-264-091-601"	"264091601"	""	NA	"M"	1	"OTHER"	99	"SCRNFAIL"	"SCREEN FAILURE"	NA	"SCRNFAIL"	"SCREEN FAILURE"	NA	"N"	"N"	"N"	"N"	""	NA	""	NA	NA	""	NA	""	NA	""	NA	""	""	NA	"DM"	"Years"	""	NA	""	NA	""
"235"	""	"EFC6546"	"006546-264-091-701"	"264091701"	""	NA	"M"	1	"OTHER"	99	"SCRNFAIL"	"SCREEN FAILURE"	NA	"SCRNFAIL"	"SCREEN FAILURE"	NA	"N"	"N"	"N"	"N"	""	NA	""	NA	NA	""	NA	""	NA	""	NA	""	""	NA	"DM"	"Years"	""	NA	""	NA	""
"236"	""	"EFC6546"	"006546-264-091-801"	"264091801"	""	NA	"M"	1	"OTHER"	99	"SCRNFAIL"	"SCREEN FAILURE"	NA	"SCRNFAIL"	"SCREEN FAILURE"	NA	"N"	"N"	"N"	"N"	""	NA	""	NA	NA	""	NA	""	NA	""	NA	""	""	NA	"DM"	"Years"	""	NA	""	NA	""
"237"	""	"EFC6546"	"006546-264-091-901"	"264091901"	""	NA	"M"	1	"OTHER"	99	"SCRNFAIL"	"SCREEN FAILURE"	NA	"SCRNFAIL"	"SCREEN FAILURE"	NA	"N"	"N"	"N"	"N"	""	NA	""	NA	NA	""	NA	""	NA	""	NA	""	""	NA	"DM"	"Years"	""	NA	""	NA	""
"238"	"69"	"EFC6546"	"006546-266-008-401"	"266008401"	"ECOG=0 or ECOG=1"	0	"M"	1	"CAUCASIAN/WHITE"	1	"PLACEBO"	"PLACEBO"	0	"PLACEBO"	"PLACEBO"	0	"Y"	"Y"	"Y"	"Y"	"ECOG=0"	0	"ECOG=0"	0	2008-12-12	"2008-12-12"	15:28:00	"15:28"	2008-12-15	"2008-12-15"	2009-10-06	"2009-10-06"	"ECOG=0 or ECOG=1"	0	"DM"	"Years"	"2008-12-12T15:28"	16:00:00	"16:00"	NA	"XX:XX"
"239"	"75"	"EFC6546"	"006546-266-008-501"	"266008501"	"ECOG=0 or ECOG=1"	0	"M"	1	"CAUCASIAN/WHITE"	1	"PLACEBO"	"PLACEBO"	0	"PLACEBO"	"PLACEBO"	0	"Y"	"Y"	"Y"	"Y"	"ECOG=1"	1	"ECOG=1"	1	2009-02-20	"2009-02-20"	11:24:00	"11:24"	2009-02-23	"2009-02-23"	2009-08-17	"2009-08-17"	"ECOG=0 or ECOG=1"	0	"DM"	"Years"	"2009-02-20T11:24"	14:30:00	"14:30"	NA	""
"240"	"67"	"EFC6546"	"006546-268-005-401"	"268005401"	"ECOG=0 or ECOG=1"	0	"M"	1	"CAUCASIAN/WHITE"	1	"PLACEBO"	"PLACEBO"	0	"PLACEBO"	"PLACEBO"	0	"Y"	"Y"	"Y"	"Y"	"ECOG=0"	0	"ECOG=0"	0	2008-06-05	"2008-06-05"	10:59:00	"10:59"	2008-06-06	"2008-06-06"	2010-09-10	"2010-09-10"	"ECOG=0 or ECOG=1"	0	"DM"	"Years"	"2008-06-05T10:59"	12:20:00	"12:20"	NA	""
"241"	"60"	"EFC6546"	"006546-268-005-801"	"268005801"	"ECOG=0 or ECOG=1"	0	"M"	1	"CAUCASIAN/WHITE"	1	"PLACEBO"	"PLACEBO"	0	"PLACEBO"	"PLACEBO"	0	"Y"	"Y"	"Y"	"Y"	"ECOG=0"	0	"ECOG=0"	0	2008-11-24	"2008-11-24"	10:25:00	"10:25"	2008-11-26	"2008-11-26"	2009-12-30	"2009-12-30"	"ECOG=0 or ECOG=1"	0	"DM"	"Years"	"2008-11-24T10:25"	10:00:00	"10:00"	NA	""
"242"	"71"	"EFC6546"	"006546-268-095-401"	"268095401"	""	NA	"M"	1	"CAUCASIAN/WHITE"	1	"SCRNFAIL"	"SCREEN FAILURE"	NA	"SCRNFAIL"	"SCREEN FAILURE"	NA	"N"	"N"	"N"	"N"	""	NA	""	NA	NA	""	NA	""	NA	""	NA	""	""	NA	"DM"	"Years"	""	NA	""	NA	""
"243"	"62"	"EFC6546"	"006546-268-095-501"	"268095501"	""	NA	"M"	1	"CAUCASIAN/WHITE"	1	"SCRNFAIL"	"SCREEN FAILURE"	NA	"SCRNFAIL"	"SCREEN FAILURE"	NA	"N"	"N"	"N"	"N"	""	NA	""	NA	NA	""	NA	""	NA	""	NA	""	""	NA	"DM"	"Years"	""	NA	""	NA	""
"244"	"75"	"EFC6546"	"006546-270-006-002"	"270006002"	"ECOG=0 or ECOG=1"	0	"M"	1	"CAUCASIAN/WHITE"	1	"PLACEBO"	"PLACEBO"	0	"PLACEBO"	"PLACEBO"	0	"Y"	"Y"	"Y"	"Y"	"ECOG=0"	0	"ECOG=0"	0	2009-06-01	"2009-06-01"	20:39:00	"20:39"	2009-06-02	"2009-06-02"	2011-12-07	"2011-12-07"	"ECOG=0 or ECOG=1"	0	"DM"	"Years"	"2009-06-01T20:39"	13:00:00	"13:00"	NA	"XX:XX"
"245"	"62"	"EFC6546"	"006546-270-006-102"	"270006102"	"ECOG=0 or ECOG=1"	0	"M"	1	"CAUCASIAN/WHITE"	1	"PLACEBO"	"PLACEBO"	0	"PLACEBO"	"PLACEBO"	0	"Y"	"Y"	"Y"	"Y"	"ECOG=0"	0	"ECOG=0"	0	2009-06-19	"2009-06-19"	17:51:00	"17:51"	2009-06-22	"2009-06-22"	2010-03-10	"2010-03-10"	"ECOG=0 or ECOG=1"	0	"DM"	"Years"	"2009-06-19T17:51"	12:40:00	"12:40"	12:30:00	"12:30"
"246"	"69"	"EFC6546"	"006546-270-006-202"	"270006202"	"ECOG=0 or ECOG=1"	0	"M"	1	"CAUCASIAN/WHITE"	1	"PLACEBO"	"PLACEBO"	0	"PLACEBO"	"PLACEBO"	0	"Y"	"Y"	"Y"	"Y"	"ECOG=0"	0	"ECOG=0"	0	2009-07-06	"2009-07-06"	09:56:00	"09:56"	2009-07-06	"2009-07-06"	2010-03-17	"2010-03-17"	"ECOG=0 or ECOG=1"	0	"DM"	"Years"	"2009-07-06T09:56"	12:00:00	"12:00"	NA	""
"247"	"59"	"EFC6546"	"006546-270-006-601"	"270006601"	"ECOG=0 or ECOG=1"	0	"M"	1	"CAUCASIAN/WHITE"	1	"PLACEBO"	"PLACEBO"	0	"PLACEBO"	"PLACEBO"	0	"Y"	"Y"	"Y"	"Y"	"ECOG=0"	0	"ECOG=0"	0	2008-04-06	"2008-04-06"	18:19:00	"18:19"	2008-04-08	"2008-04-08"	2009-12-07	"2009-12-07"	"ECOG=0 or ECOG=1"	0	"DM"	"Years"	"2008-04-06T18:19"	12:10:00	"12:10"	11:00:00	"11:00"
"248"	"64"	"EFC6546"	"006546-270-006-701"	"270006701"	"ECOG=0 or ECOG=1"	0	"M"	1	"CAUCASIAN/WHITE"	1	"PLACEBO"	"PLACEBO"	0	"PLACEBO"	"PLACEBO"	0	"Y"	"Y"	"Y"	"Y"	"ECOG=0"	0	"ECOG=0"	0	2008-08-08	"2008-08-08"	15:03:00	"15:03"	2008-08-11	"2008-08-11"	2008-09-01	"2008-09-01"	"ECOG=0 or ECOG=1"	0	"DM"	"Years"	"2008-08-08T15:03"	10:20:00	"10:20"	NA	""
"249"	"81"	"EFC6546"	"006546-270-006-801"	"270006801"	"ECOG=0 or ECOG=1"	0	"M"	1	"CAUCASIAN/WHITE"	1	"PLACEBO"	"PLACEBO"	0	"PLACEBO"	"PLACEBO"	0	"Y"	"Y"	"Y"	"Y"	"ECOG=0"	0	"ECOG=0"	0	2008-08-25	"2008-08-25"	16:26:00	"16:26"	2008-08-26	"2008-08-26"	2009-09-04	"2009-09-04"	"ECOG=0 or ECOG=1"	0	"DM"	"Years"	"2008-08-25T16:26"	12:10:00	"12:10"	12:30:00	"12:30"
"250"	"68"	"EFC6546"	"006546-270-096-401"	"270096401"	""	NA	"M"	1	"CAUCASIAN/WHITE"	1	"SCRNFAIL"	"SCREEN FAILURE"	NA	"SCRNFAIL"	"SCREEN FAILURE"	NA	"N"	"N"	"N"	"N"	""	NA	""	NA	NA	""	NA	""	NA	""	NA	""	""	NA	"DM"	"Years"	""	NA	""	NA	""
"251"	"69"	"EFC6546"	"006546-274-001-202"	"274001202"	"ECOG=0 or ECOG=1"	0	"M"	1	"CAUCASIAN/WHITE"	1	"PLACEBO"	"PLACEBO"	0	"PLACEBO"	"PLACEBO"	0	"Y"	"Y"	"Y"	"Y"	"ECOG=0"	0	"ECOG=0"	0	2009-09-22	"2009-09-22"	10:49:00	"10:49"	2009-09-22	"2009-09-22"	2010-05-25	"2010-05-25"	"ECOG=0 or ECOG=1"	0	"DM"	"Years"	"2009-09-22T10:49"	12:33:00	"12:33"	NA	""
"252"	"78"	"EFC6546"	"006546-274-001-401"	"274001401"	"ECOG=0 or ECOG=1"	0	"M"	1	"CAUCASIAN/WHITE"	1	"PLACEBO"	"PLACEBO"	0	"PLACEBO"	"PLACEBO"	0	"Y"	"Y"	"Y"	"Y"	"ECOG=1"	1	"ECOG=1"	1	2008-06-03	"2008-06-03"	15:32:00	"15:32"	2008-06-04	"2008-06-04"	2008-08-25	"2008-08-25"	"ECOG=0 or ECOG=1"	0	"DM"	"Years"	"2008-06-03T15:32"	10:06:00	"10:06"	NA	""
"253"	"59"	"EFC6546"	"006546-274-001-601"	"274001601"	"ECOG=0 or ECOG=1"	0	"M"	1	"CAUCASIAN/WHITE"	1	"PLACEBO"	"PLACEBO"	0	"PLACEBO"	"PLACEBO"	0	"Y"	"Y"	"Y"	"Y"	"ECOG=1"	1	"ECOG=1"	1	2008-10-16	"2008-10-16"	10:32:00	"10:32"	2008-10-16	"2008-10-16"	2009-06-10	"2009-06-10"	"ECOG=0 or ECOG=1"	0	"DM"	"Years"	"2008-10-16T10:32"	12:46:00	"12:46"	NA	""
"254"	"59"	"EFC6546"	"006546-274-001-901"	"274001901"	"ECOG=0 or ECOG=1"	0	"M"	1	"CAUCASIAN/WHITE"	1	"PLACEBO"	"PLACEBO"	0	"PLACEBO"	"PLACEBO"	0	"Y"	"Y"	"Y"	"Y"	"ECOG=0"	0	"ECOG=0"	0	2009-03-02	"2009-03-02"	12:44:00	"12:44"	2009-03-02	"2009-03-02"	2009-10-20	"2009-10-20"	"ECOG=0 or ECOG=1"	0	"DM"	"Years"	"2009-03-02T12:44"	14:20:00	"14:20"	NA	""
"255"	"66"	"EFC6546"	"006546-274-007-401"	"274007401"	"ECOG=0 or ECOG=1"	0	"M"	1	"CAUCASIAN/WHITE"	1	"PLACEBO"	"PLACEBO"	0	"6 MG"	"AVE0005A"	6	"Y"	"Y"	"Y"	"Y"	"ECOG=1"	1	"ECOG=1"	1	2007-12-10	"2007-12-10"	12:14:00	"12:14"	2007-12-11	"2007-12-11"	2008-10-01	"2008-10-01"	"ECOG=0 or ECOG=1"	0	"DM"	"Years"	"2007-12-10T12:14"	NA	"XX:XX"	17:10:00	"17:10"
"256"	"72"	"EFC6546"	"006546-274-007-901"	"274007901"	"ECOG=0 or ECOG=1"	0	"M"	1	"CAUCASIAN/WHITE"	1	"PLACEBO"	"PLACEBO"	0	"PLACEBO"	"PLACEBO"	0	"Y"	"Y"	"Y"	"Y"	"ECOG=0"	0	"ECOG=0"	0	2009-08-17	"2009-08-17"	11:22:00	"11:22"	2009-08-18	"2009-08-18"	2010-05-20	"2010-05-20"	"ECOG=0 or ECOG=1"	0	"DM"	"Years"	"2009-08-17T11:22"	11:00:00	"11:00"	15:35:00	"15:35"
"257"	"67"	"EFC6546"	"006546-274-091-401"	"274091401"	""	NA	"M"	1	"CAUCASIAN/WHITE"	1	"SCRNFAIL"	"SCREEN FAILURE"	NA	"SCRNFAIL"	"SCREEN FAILURE"	NA	"N"	"N"	"N"	"N"	""	NA	""	NA	NA	""	NA	""	NA	""	NA	""	""	NA	"DM"	"Years"	""	NA	""	NA	""
"258"	"62"	"EFC6546"	"006546-274-097-401"	"274097401"	""	NA	"M"	1	"CAUCASIAN/WHITE"	1	"SCRNFAIL"	"SCREEN FAILURE"	NA	"SCRNFAIL"	"SCREEN FAILURE"	NA	"N"	"N"	"N"	"N"	""	NA	""	NA	NA	""	NA	""	NA	""	NA	""	""	NA	"DM"	"Years"	""	NA	""	NA	""
"259"	"75"	"EFC6546"	"006546-276-008-601"	"276008601"	"ECOG=0 or ECOG=1"	0	"M"	1	"CAUCASIAN/WHITE"	1	"PLACEBO"	"PLACEBO"	0	"PLACEBO"	"PLACEBO"	0	"Y"	"Y"	"Y"	"Y"	"ECOG=0"	0	"ECOG=1"	1	2009-02-11	"2009-02-11"	10:25:00	"10:25"	2009-02-12	"2009-02-12"	2009-08-27	"2009-08-27"	"ECOG=0 or ECOG=1"	0	"DM"	"Years"	"2009-02-11T10:25"	11:00:00	"11:00"	NA	""
"260"	"55"	"EFC6546"	"006546-276-098-401"	"276098401"	""	NA	"M"	1	"CAUCASIAN/WHITE"	1	"SCRNFAIL"	"SCREEN FAILURE"	NA	"SCRNFAIL"	"SCREEN FAILURE"	NA	"N"	"N"	"N"	"N"	""	NA	""	NA	NA	""	NA	""	NA	""	NA	""	""	NA	"DM"	"Years"	""	NA	""	NA	""
"261"	"70"	"EFC6546"	"006546-278-005-401"	"278005401"	"ECOG=0 or ECOG=1"	0	"M"	1	"CAUCASIAN/WHITE"	1	"PLACEBO"	"PLACEBO"	0	"PLACEBO"	"PLACEBO"	0	"Y"	"Y"	"Y"	"Y"	"ECOG=1"	1	"ECOG=1"	1	2009-02-09	"2009-02-09"	16:04:00	"16:04"	2009-02-10	"2009-02-10"	2010-01-14	"2010-01-14"	"ECOG=0 or ECOG=1"	0	"DM"	"Years"	"2009-02-09T16:04"	12:10:00	"12:10"	12:15:00	"12:15"
"262"	"58"	"EFC6546"	"006546-278-005-501"	"278005501"	"ECOG=0 or ECOG=1"	0	"M"	1	"CAUCASIAN/WHITE"	1	"PLACEBO"	"PLACEBO"	0	"PLACEBO"	"PLACEBO"	0	"Y"	"Y"	"Y"	"Y"	"ECOG=0"	0	"ECOG=0"	0	2009-02-16	"2009-02-16"	09:28:00	"09:28"	2009-02-18	"2009-02-18"	2009-12-31	"2009-12-31"	"ECOG=0 or ECOG=1"	0	"DM"	"Years"	"2009-02-16T09:28"	09:40:00	"09:40"	11:00:00	"11:00"
"263"	"58"	"EFC6546"	"006546-284-007-002"	"284007002"	"ECOG=0 or ECOG=1"	0	"M"	1	"CAUCASIAN/WHITE"	1	"PLACEBO"	"PLACEBO"	0	"PLACEBO"	"PLACEBO"	0	"Y"	"Y"	"Y"	"Y"	"ECOG=0"	0	"ECOG=0"	0	2009-09-24	"2009-09-24"	13:40:00	"13:40"	2009-09-24	"2009-09-24"	2010-04-21	"2010-04-21"	"ECOG=0 or ECOG=1"	0	"DM"	"Years"	"2009-09-24T13:40"	16:00:00	"16:00"	14:37:00	"14:37"
"264"	"64"	"EFC6546"	"006546-284-007-801"	"284007801"	"ECOG=0 or ECOG=1"	0	"M"	1	"CAUCASIAN/WHITE"	1	"PLACEBO"	"PLACEBO"	0	"PLACEBO"	"PLACEBO"	0	"Y"	"Y"	"Y"	"Y"	"ECOG=0"	0	"ECOG=0"	0	2008-09-04	"2008-09-04"	11:06:00	"11:06"	2008-09-04	"2008-09-04"	2008-12-23	"2008-12-23"	"ECOG=0 or ECOG=1"	0	"DM"	"Years"	"2008-09-04T11:06"	13:00:00	"13:00"	NA	""
"265"	"77"	"EFC6546"	"006546-284-007-901"	"284007901"	"ECOG=0 or ECOG=1"	0	"M"	1	"CAUCASIAN/WHITE"	1	"PLACEBO"	"PLACEBO"	0	"PLACEBO"	"PLACEBO"	0	"Y"	"Y"	"Y"	"Y"	"ECOG=1"	1	"ECOG=1"	1	2009-06-08	"2009-06-08"	14:14:00	"14:14"	2009-06-08	"2009-06-08"	2009-11-03	"2009-11-03"	"ECOG=0 or ECOG=1"	0	"DM"	"Years"	"2009-06-08T14:14"	16:20:00	"16:20"	NA	""
"266"	"59"	"EFC6546"	"006546-286-008-002"	"286008002"	"ECOG=0 or ECOG=1"	0	"M"	1	"CAUCASIAN/WHITE"	1	"PLACEBO"	"PLACEBO"	0	"PLACEBO"	"PLACEBO"	0	"Y"	"Y"	"Y"	"Y"	"ECOG=0"	0	"ECOG=0"	0	2009-05-28	"2009-05-28"	12:34:00	"12:34"	2009-05-29	"2009-05-29"	2009-11-20	"2009-11-20"	"ECOG=0 or ECOG=1"	0	"DM"	"Years"	"2009-05-28T12:34"	14:00:00	"14:00"	NA	""
"267"	"53"	"EFC6546"	"006546-286-008-401"	"286008401"	"ECOG=0 or ECOG=1"	0	"M"	1	"CAUCASIAN/WHITE"	1	"PLACEBO"	"PLACEBO"	0	"PLACEBO"	"PLACEBO"	0	"Y"	"Y"	"Y"	"Y"	"ECOG=0"	0	"ECOG=0"	0	2008-10-20	"2008-10-20"	13:05:00	"13:05"	2008-10-21	"2008-10-21"	2009-04-28	"2009-04-28"	"ECOG=0 or ECOG=1"	0	"DM"	"Years"	"2008-10-20T13:05"	15:55:00	"15:55"	NA	""
"268"	"70"	"EFC6546"	"006546-286-008-701"	"286008701"	"ECOG=0 or ECOG=1"	0	"M"	1	"CAUCASIAN/WHITE"	1	"PLACEBO"	"PLACEBO"	0	"PLACEBO"	"PLACEBO"	0	"Y"	"Y"	"Y"	"Y"	"ECOG=0"	0	"ECOG=0"	0	2009-02-02	"2009-02-02"	15:10:00	"15:10"	2009-02-03	"2009-02-03"	2009-08-11	"2009-08-11"	"ECOG=0 or ECOG=1"	0	"DM"	"Years"	"2009-02-02T15:10"	15:15:00	"15:15"	NA	""
"269"	"73"	"EFC6546"	"006546-286-008-702"	"286008702"	"ECOG=0 or ECOG=1"	0	"M"	1	"CAUCASIAN/WHITE"	1	"PLACEBO"	"PLACEBO"	0	"PLACEBO"	"PLACEBO"	0	"Y"	"Y"	"Y"	"Y"	"ECOG=0"	0	"ECOG=0"	0	2010-01-27	"2010-01-27"	13:56:00	"13:56"	2010-01-29	"2010-01-29"	2010-05-14	"2010-05-14"	"ECOG=0 or ECOG=1"	0	"DM"	"Years"	"2010-01-27T13:56"	10:00:00	"10:00"	NA	""
"270"	"68"	"EFC6546"	"006546-286-008-801"	"286008801"	"ECOG=0 or ECOG=1"	0	"M"	1	"CAUCASIAN/WHITE"	1	"PLACEBO"	"PLACEBO"	0	"PLACEBO"	"PLACEBO"	0	"Y"	"Y"	"Y"	"Y"	"ECOG=0"	0	"ECOG=0"	0	2009-03-11	"2009-03-11"	17:22:00	"17:22"	2009-03-13	"2009-03-13"	2009-04-24	"2009-04-24"	"ECOG=0 or ECOG=1"	0	"DM"	"Years"	"2009-03-11T17:22"	15:00:00	"15:00"	NA	""
"271"	"72"	"EFC6546"	"006546-286-098-501"	"286098501"	""	NA	"M"	1	"CAUCASIAN/WHITE"	1	"SCRNFAIL"	"SCREEN FAILURE"	NA	"SCRNFAIL"	"SCREEN FAILURE"	NA	"N"	"N"	"N"	"N"	""	NA	""	NA	NA	""	NA	""	NA	""	NA	""	""	NA	"DM"	"Years"	""	NA	""	NA	""
"272"	"79"	"EFC6546"	"006546-288-005-501"	"288005501"	"ECOG=0 or ECOG=1"	0	"M"	1	"CAUCASIAN/WHITE"	1	"PLACEBO"	"PLACEBO"	0	"PLACEBO"	"PLACEBO"	0	"Y"	"Y"	"Y"	"Y"	"ECOG=1"	1	"ECOG=1"	1	2009-06-11	"2009-06-11"	11:09:00	"11:09"	2009-06-16	"2009-06-16"	2010-03-02	"2010-03-02"	"ECOG=0 or ECOG=1"	0	"DM"	"Years"	"2009-06-11T11:09"	11:10:00	"11:10"	14:47:00	"14:47"
"273"	"67"	"EFC6546"	"006546-294-007-402"	"294007402"	"ECOG=0 or ECOG=1"	0	"M"	1	"CAUCASIAN/WHITE"	1	"PLACEBO"	"PLACEBO"	0	"PLACEBO"	"PLACEBO"	0	"Y"	"Y"	"Y"	"Y"	"ECOG=0"	0	"ECOG=0"	0	2009-07-16	"2009-07-16"	14:11:00	"14:11"	2009-07-20	"2009-07-20"	2010-06-17	"2010-06-17"	"ECOG=0 or ECOG=1"	0	"DM"	"Years"	"2009-07-16T14:11"	09:20:00	"09:20"	NA	"XX:XX"
"274"	"73"	"EFC6546"	"006546-294-007-501"	"294007501"	"ECOG=0 or ECOG=1"	0	"M"	1	"CAUCASIAN/WHITE"	1	"PLACEBO"	"PLACEBO"	0	"PLACEBO"	"PLACEBO"	0	"Y"	"Y"	"Y"	"Y"	"ECOG=1"	1	"ECOG=1"	1	2008-02-06	"2008-02-06"	12:27:00	"12:27"	2008-02-07	"2008-02-07"	2008-07-04	"2008-07-04"	"ECOG=0 or ECOG=1"	0	"DM"	"Years"	"2008-02-06T12:27"	12:10:00	"12:10"	NA	""
"275"	"54"	"EFC6546"	"006546-294-007-701"	"294007701"	"ECOG=0 or ECOG=1"	0	"M"	1	"CAUCASIAN/WHITE"	1	"PLACEBO"	"PLACEBO"	0	"PLACEBO"	"PLACEBO"	0	"Y"	"Y"	"Y"	"Y"	"ECOG=1"	1	"ECOG=1"	1	2008-03-17	"2008-03-17"	12:43:00	"12:43"	2008-03-18	"2008-03-18"	2008-07-03	"2008-07-03"	"ECOG=0 or ECOG=1"	0	"DM"	"Years"	"2008-03-17T12:43"	17:30:00	"17:30"	NA	""
"276"	"66"	"EFC6546"	"006546-294-007-702"	"294007702"	"ECOG=0 or ECOG=1"	0	"M"	1	"CAUCASIAN/WHITE"	1	"PLACEBO"	"PLACEBO"	0	"PLACEBO"	"PLACEBO"	0	"Y"	"Y"	"Y"	"Y"	"ECOG=1"	1	"ECOG=1"	1	2010-01-15	"2010-01-15"	11:36:00	"11:36"	2010-01-15	"2010-01-15"	2010-10-05	"2010-10-05"	"ECOG=0 or ECOG=1"	0	"DM"	"Years"	"2010-01-15T11:36"	13:15:00	"13:15"	10:40:00	"10:40"
"277"	"79"	"EFC6546"	"006546-294-091-401"	"294091401"	""	NA	"M"	1	"CAUCASIAN/WHITE"	1	"SCRNFAIL"	"SCREEN FAILURE"	NA	"SCRNFAIL"	"SCREEN FAILURE"	NA	"N"	"N"	"N"	"N"	""	NA	""	NA	NA	""	NA	""	NA	""	NA	""	""	NA	"DM"	"Years"	""	NA	""	NA	""
"278"	"75"	"EFC6546"	"006546-294-097-401"	"294097401"	""	NA	"M"	1	"CAUCASIAN/WHITE"	1	"SCRNFAIL"	"SCREEN FAILURE"	NA	"SCRNFAIL"	"SCREEN FAILURE"	NA	"N"	"N"	"N"	"N"	""	NA	""	NA	NA	""	NA	""	NA	""	NA	""	""	NA	"DM"	"Years"	""	NA	""	NA	""
"279"	"76"	"EFC6546"	"006546-294-097-501"	"294097501"	""	NA	"M"	1	"CAUCASIAN/WHITE"	1	"SCRNFAIL"	"SCREEN FAILURE"	NA	"SCRNFAIL"	"SCREEN FAILURE"	NA	"N"	"N"	"N"	"N"	""	NA	""	NA	NA	""	NA	""	NA	""	NA	""	""	NA	"DM"	"Years"	""	NA	""	NA	""
"280"	"76"	"EFC6546"	"006546-294-097-601"	"294097601"	""	NA	"M"	1	"CAUCASIAN/WHITE"	1	"SCRNFAIL"	"SCREEN FAILURE"	NA	"SCRNFAIL"	"SCREEN FAILURE"	NA	"N"	"N"	"N"	"N"	""	NA	""	NA	NA	""	NA	""	NA	""	NA	""	""	NA	"DM"	"Years"	""	NA	""	NA	""
"281"	"65"	"EFC6546"	"006546-294-097-701"	"294097701"	""	NA	"M"	1	"CAUCASIAN/WHITE"	1	"SCRNFAIL"	"SCREEN FAILURE"	NA	"SCRNFAIL"	"SCREEN FAILURE"	NA	"N"	"N"	"N"	"N"	""	NA	""	NA	NA	""	NA	""	NA	""	NA	""	""	NA	"DM"	"Years"	""	NA	""	NA	""
"282"	"68"	"EFC6546"	"006546-294-097-801"	"294097801"	""	NA	"M"	1	"CAUCASIAN/WHITE"	1	"SCRNFAIL"	"SCREEN FAILURE"	NA	"SCRNFAIL"	"SCREEN FAILURE"	NA	"N"	"N"	"N"	"N"	""	NA	""	NA	NA	""	NA	""	NA	""	NA	""	""	NA	"DM"	"Years"	""	NA	""	NA	""
"283"	"73"	"EFC6546"	"006546-296-008-002"	"296008002"	"ECOG=0 or ECOG=1"	0	"M"	1	"CAUCASIAN/WHITE"	1	"PLACEBO"	"PLACEBO"	0	"PLACEBO"	"PLACEBO"	0	"Y"	"Y"	"Y"	"Y"	"ECOG=1"	1	"ECOG=1"	1	2008-11-20	"2008-11-20"	12:32:00	"12:32"	2008-11-21	"2008-11-21"	2009-04-17	"2009-04-17"	"ECOG=0 or ECOG=1"	0	"DM"	"Years"	"2008-11-20T12:32"	10:27:00	"10:27"	NA	""
"284"	"76"	"EFC6546"	"006546-296-008-102"	"296008102"	"ECOG=0 or ECOG=1"	0	"M"	1	"CAUCASIAN/WHITE"	1	"PLACEBO"	"PLACEBO"	0	"PLACEBO"	"PLACEBO"	0	"Y"	"Y"	"Y"	"Y"	"ECOG=0"	0	"ECOG=0"	0	2008-12-11	"2008-12-11"	15:46:00	"15:46"	2008-12-12	"2008-12-12"	2009-05-08	"2009-05-08"	"ECOG=0 or ECOG=1"	0	"DM"	"Years"	"2008-12-11T15:46"	12:15:00	"12:15"	NA	""
"285"	"64"	"EFC6546"	"006546-296-008-302"	"296008302"	"ECOG=0 or ECOG=1"	0	"M"	1	"CAUCASIAN/WHITE"	1	"PLACEBO"	"PLACEBO"	0	"PLACEBO"	"PLACEBO"	0	"Y"	"Y"	"Y"	"Y"	"ECOG=0"	0	"ECOG=0"	0	2009-01-29	"2009-01-29"	11:28:00	"11:28"	2009-01-30	"2009-01-30"	2009-10-02	"2009-10-02"	"ECOG=0 or ECOG=1"	0	"DM"	"Years"	"2009-01-29T11:28"	11:15:00	"11:15"	NA	"XX:XX"
"286"	"63"	"EFC6546"	"006546-296-008-501"	"296008501"	"ECOG=0 or ECOG=1"	0	"M"	1	"CAUCASIAN/WHITE"	1	"PLACEBO"	"PLACEBO"	0	"PLACEBO"	"PLACEBO"	0	"Y"	"Y"	"Y"	"Y"	"ECOG=0"	0	"ECOG=0"	0	2008-05-06	"2008-05-06"	11:31:00	"11:31"	2008-05-09	"2008-05-09"	2008-11-14	"2008-11-14"	"ECOG=0 or ECOG=1"	0	"DM"	"Years"	"2008-05-06T11:31"	NA	"XX:XX"	NA	""
"287"	"61"	"EFC6546"	"006546-296-008-601"	"296008601"	"ECOG=0 or ECOG=1"	0	"M"	1	"CAUCASIAN/WHITE"	1	"PLACEBO"	"PLACEBO"	0	"PLACEBO"	"PLACEBO"	0	"Y"	"Y"	"Y"	"Y"	"ECOG=0"	0	"ECOG=0"	0	2008-06-12	"2008-06-12"	11:19:00	"11:19"	2008-06-13	"2008-06-13"	2008-12-19	"2008-12-19"	"ECOG=0 or ECOG=1"	0	"DM"	"Years"	"2008-06-12T11:19"	11:15:00	"11:15"	NA	""
"288"	"66"	"EFC6546"	"006546-296-098-401"	"296098401"	""	NA	"M"	1	"CAUCASIAN/WHITE"	1	"SCRNFAIL"	"SCREEN FAILURE"	NA	"SCRNFAIL"	"SCREEN FAILURE"	NA	"N"	"N"	"N"	"N"	""	NA	""	NA	NA	""	NA	""	NA	""	NA	""	""	NA	"DM"	"Years"	""	NA	""	NA	""
"289"	"63"	"EFC6546"	"006546-296-098-501"	"296098501"	""	NA	"M"	1	"CAUCASIAN/WHITE"	1	"SCRNFAIL"	"SCREEN FAILURE"	NA	"SCRNFAIL"	"SCREEN FAILURE"	NA	"N"	"N"	"N"	"N"	""	NA	""	NA	NA	""	NA	""	NA	""	NA	""	""	NA	"DM"	"Years"	""	NA	""	NA	""
"290"	"73"	"EFC6546"	"006546-296-098-601"	"296098601"	""	NA	"M"	1	"CAUCASIAN/WHITE"	1	"SCRNFAIL"	"SCREEN FAILURE"	NA	"SCRNFAIL"	"SCREEN FAILURE"	NA	"N"	"N"	"N"	"N"	""	NA	""	NA	NA	""	NA	""	NA	""	NA	""	""	NA	"DM"	"Years"	""	NA	""	NA	""
"291"	"67"	"EFC6546"	"006546-296-098-701"	"296098701"	""	NA	"M"	1	"CAUCASIAN/WHITE"	1	"SCRNFAIL"	"SCREEN FAILURE"	NA	"SCRNFAIL"	"SCREEN FAILURE"	NA	"N"	"N"	"N"	"N"	""	NA	""	NA	NA	""	NA	""	NA	""	NA	""	""	NA	"DM"	"Years"	""	NA	""	NA	""
"292"	"72"	"EFC6546"	"006546-296-098-801"	"296098801"	""	NA	"M"	1	"CAUCASIAN/WHITE"	1	"SCRNFAIL"	"SCREEN FAILURE"	NA	"SCRNFAIL"	"SCREEN FAILURE"	NA	"N"	"N"	"N"	"N"	""	NA	""	NA	NA	""	NA	""	NA	""	NA	""	""	NA	"DM"	"Years"	""	NA	""	NA	""
"293"	"72"	"EFC6546"	"006546-296-098-901"	"296098901"	""	NA	"M"	1	"CAUCASIAN/WHITE"	1	"SCRNFAIL"	"SCREEN FAILURE"	NA	"SCRNFAIL"	"SCREEN FAILURE"	NA	"N"	"N"	"N"	"N"	""	NA	""	NA	NA	""	NA	""	NA	""	NA	""	""	NA	"DM"	"Years"	""	NA	""	NA	""
"294"	"54"	"EFC6546"	"006546-306-100-002"	"306100002"	"ECOG=0 or ECOG=1"	0	"M"	1	"CAUCASIAN/WHITE"	1	"PLACEBO"	"PLACEBO"	0	"PLACEBO"	"PLACEBO"	0	"Y"	"Y"	"Y"	"Y"	"ECOG=0"	0	"ECOG=0"	0	2009-02-18	"2009-02-18"	09:02:00	"09:02"	2009-02-18	"2009-02-18"	2009-06-04	"2009-06-04"	"ECOG=0 or ECOG=1"	0	"DM"	"Years"	"2009-02-18T09:02"	15:10:00	"15:10"	NA	""
"295"	"65"	"EFC6546"	"006546-306-100-202"	"306100202"	"ECOG=0 or ECOG=1"	0	"M"	1	"CAUCASIAN/WHITE"	1	"PLACEBO"	"PLACEBO"	0	"PLACEBO"	"PLACEBO"	0	"Y"	"Y"	"Y"	"Y"	"ECOG=0"	0	"ECOG=0"	0	2009-08-26	"2009-08-26"	11:58:00	"11:58"	2009-08-26	"2009-08-26"	2010-04-14	"2010-04-14"	"ECOG=0 or ECOG=1"	0	"DM"	"Years"	"2009-08-26T11:58"	13:29:00	"13:29"	12:08:00	"12:08"
"296"	"72"	"EFC6546"	"006546-306-100-601"	"306100601"	"ECOG=0 or ECOG=1"	0	"M"	1	"CAUCASIAN/WHITE"	1	"PLACEBO"	"PLACEBO"	0	"PLACEBO"	"PLACEBO"	0	"Y"	"Y"	"Y"	"Y"	"ECOG=0"	0	"ECOG=0"	0	2007-11-15	"2007-11-15"	10:44:00	"10:44"	2007-11-16	"2007-11-16"	2008-12-12	"2008-12-12"	"ECOG=0 or ECOG=1"	0	"DM"	"Years"	"2007-11-15T10:44"	13:38:00	"13:38"	NA	"XX:XX"
"297"	"78"	"EFC6546"	"006546-306-100-801"	"306100801"	"ECOG=0 or ECOG=1"	0	"M"	1	"CAUCASIAN/WHITE"	1	"PLACEBO"	"PLACEBO"	0	"PLACEBO"	"PLACEBO"	0	"Y"	"Y"	"Y"	"Y"	"ECOG=0"	0	"ECOG=0"	0	2008-09-29	"2008-09-29"	11:59:00	"11:59"	2008-09-29	"2008-09-29"	2008-12-23	"2008-12-23"	"ECOG=0 or ECOG=1"	0	"DM"	"Years"	"2008-09-29T11:59"	15:25:00	"15:25"	NA	""
"298"	"65"	"EFC6546"	"006546-306-100-901"	"306100901"	"ECOG=0 or ECOG=1"	0	"M"	1	"CAUCASIAN/WHITE"	1	"PLACEBO"	"PLACEBO"	0	"PLACEBO"	"PLACEBO"	0	"Y"	"Y"	"Y"	"Y"	"ECOG=0"	0	"ECOG=0"	0	2008-10-14	"2008-10-14"	12:20:00	"12:20"	2008-10-14	"2008-10-14"	2009-01-09	"2009-01-09"	"ECOG=0 or ECOG=1"	0	"DM"	"Years"	"2008-10-14T12:20"	14:05:00	"14:05"	NA	""
"299"	"66"	"EFC6546"	"006546-306-190-401"	"306190401"	""	NA	"M"	1	"CAUCASIAN/WHITE"	1	"SCRNFAIL"	"SCREEN FAILURE"	NA	"SCRNFAIL"	"SCREEN FAILURE"	NA	"N"	"N"	"N"	"N"	""	NA	""	NA	NA	""	NA	""	NA	""	NA	""	""	NA	"DM"	"Years"	""	NA	""	NA	""
"300"	"72"	"EFC6546"	"006546-306-190-501"	"306190501"	""	NA	"M"	1	"CAUCASIAN/WHITE"	1	"SCRNFAIL"	"SCREEN FAILURE"	NA	"SCRNFAIL"	"SCREEN FAILURE"	NA	"N"	"N"	"N"	"N"	""	NA	""	NA	NA	""	NA	""	NA	""	NA	""	""	NA	"DM"	"Years"	""	NA	""	NA	""
"301"	"70"	"EFC6546"	"006546-326-100-401"	"326100401"	"ECOG=0 or ECOG=1"	0	"M"	1	"CAUCASIAN/WHITE"	1	"PLACEBO"	"PLACEBO"	0	"PLACEBO"	"PLACEBO"	0	"Y"	"Y"	"Y"	"Y"	"ECOG=0"	0	"ECOG=0"	0	2009-04-20	"2009-04-20"	14:41:00	"14:41"	2009-04-21	"2009-04-21"	2009-10-07	"2009-10-07"	"ECOG=0 or ECOG=1"	0	"DM"	"Years"	"2009-04-20T14:41"	15:35:00	"15:35"	NA	""
"302"	"81"	"EFC6546"	"006546-326-100-601"	"326100601"	"ECOG=0 or ECOG=1"	0	"M"	1	"CAUCASIAN/WHITE"	1	"PLACEBO"	"PLACEBO"	0	"PLACEBO"	"PLACEBO"	0	"Y"	"Y"	"Y"	"Y"	"ECOG=0"	0	"ECOG=0"	0	2009-07-20	"2009-07-20"	10:14:00	"10:14"	2009-07-22	"2009-07-22"	2010-01-13	"2010-01-13"	"ECOG=0 or ECOG=1"	0	"DM"	"Years"	"2009-07-20T10:14"	13:30:00	"13:30"	NA	""
"303"	"72"	"EFC6546"	"006546-330-096-401"	"330096401"	""	NA	"M"	1	"OTHER"	99	"SCRNFAIL"	"SCREEN FAILURE"	NA	"SCRNFAIL"	"SCREEN FAILURE"	NA	"N"	"N"	"N"	"N"	""	NA	""	NA	NA	""	NA	""	NA	""	NA	""	""	NA	"DM"	"Years"	""	NA	""	NA	""
"304"	"59"	"EFC6546"	"006546-332-000-401"	"332000401"	"ECOG=0 or ECOG=1"	0	"M"	1	"CAUCASIAN/WHITE"	1	"PLACEBO"	"PLACEBO"	0	"PLACEBO"	"PLACEBO"	0	"Y"	"Y"	"Y"	"Y"	"ECOG=1"	1	"ECOG=1"	1	2009-03-25	"2009-03-25"	10:10:00	"10:10"	2009-03-25	"2009-03-25"	2010-04-29	"2010-04-29"	"ECOG=0 or ECOG=1"	0	"DM"	"Years"	"2009-03-25T10:10"	11:00:00	"11:00"	NA	""
"305"	"77"	"EFC6546"	"006546-332-000-601"	"332000601"	"ECOG=0 or ECOG=1"	0	"M"	1	"CAUCASIAN/WHITE"	1	"PLACEBO"	"PLACEBO"	0	"PLACEBO"	"PLACEBO"	0	"Y"	"Y"	"Y"	"Y"	"ECOG=1"	1	"ECOG=1"	1	2010-01-04	"2010-01-04"	10:38:00	"10:38"	2010-01-06	"2010-01-06"	2010-10-29	"2010-10-29"	"ECOG=0 or ECOG=1"	0	"DM"	"Years"	"2010-01-04T10:38"	12:20:00	"12:20"	16:55:00	"16:55"
"306"	"78"	"EFC6546"	"006546-332-090-401"	"332090401"	""	NA	"M"	1	"CAUCASIAN/WHITE"	1	"SCRNFAIL"	"SCREEN FAILURE"	NA	"SCRNFAIL"	"SCREEN FAILURE"	NA	"N"	"N"	"N"	"N"	""	NA	""	NA	NA	""	NA	""	NA	""	NA	""	""	NA	"DM"	"Years"	""	NA	""	NA	""
"307"	"64"	"EFC6546"	"006546-332-090-501"	"332090501"	""	NA	"M"	1	"CAUCASIAN/WHITE"	1	"SCRNFAIL"	"SCREEN FAILURE"	NA	"SCRNFAIL"	"SCREEN FAILURE"	NA	"N"	"N"	"N"	"N"	""	NA	""	NA	NA	""	NA	""	NA	""	NA	""	""	NA	"DM"	"Years"	""	NA	""	NA	""
"308"	"63"	"EFC6546"	"006546-333-002-401"	"333002401"	"ECOG=0 or ECOG=1"	0	"M"	1	"CAUCASIAN/WHITE"	1	"PLACEBO"	"PLACEBO"	0	"PLACEBO"	"PLACEBO"	0	"Y"	"Y"	"Y"	"Y"	"ECOG=1"	1	"ECOG=1"	1	2008-02-05	"2008-02-05"	18:43:00	"18:43"	2008-02-07	"2008-02-07"	2009-01-19	"2009-01-19"	"ECOG=0 or ECOG=1"	0	"DM"	"Years"	"2008-02-05T18:43"	11:25:00	"11:25"	NA	""
"309"	"73"	"EFC6546"	"006546-333-092-401"	"333092401"	""	NA	"M"	1	"CAUCASIAN/WHITE"	1	"SCRNFAIL"	"SCREEN FAILURE"	NA	"SCRNFAIL"	"SCREEN FAILURE"	NA	"N"	"N"	"N"	"N"	""	NA	""	NA	NA	""	NA	""	NA	""	NA	""	""	NA	"DM"	"Years"	""	NA	""	NA	""
"310"	"76"	"EFC6546"	"006546-333-092-501"	"333092501"	""	NA	"M"	1	"CAUCASIAN/WHITE"	1	"SCRNFAIL"	"SCREEN FAILURE"	NA	"SCRNFAIL"	"SCREEN FAILURE"	NA	"N"	"N"	"N"	"N"	""	NA	""	NA	NA	""	NA	""	NA	""	NA	""	""	NA	"DM"	"Years"	""	NA	""	NA	""
"311"	"65"	"EFC6546"	"006546-333-092-601"	"333092601"	""	NA	"M"	1	"CAUCASIAN/WHITE"	1	"SCRNFAIL"	"SCREEN FAILURE"	NA	"SCRNFAIL"	"SCREEN FAILURE"	NA	"N"	"N"	"N"	"N"	""	NA	""	NA	NA	""	NA	""	NA	""	NA	""	""	NA	"DM"	"Years"	""	NA	""	NA	""
"312"	"72"	"EFC6546"	"006546-333-092-701"	"333092701"	""	NA	"M"	1	"CAUCASIAN/WHITE"	1	"SCRNFAIL"	"SCREEN FAILURE"	NA	"SCRNFAIL"	"SCREEN FAILURE"	NA	"N"	"N"	"N"	"N"	""	NA	""	NA	NA	""	NA	""	NA	""	NA	""	""	NA	"DM"	"Years"	""	NA	""	NA	""
"313"	"72"	"EFC6546"	"006546-336-000-002"	"336000002"	"ECOG=0 or ECOG=1"	0	"M"	1	"CAUCASIAN/WHITE"	1	"PLACEBO"	"PLACEBO"	0	"PLACEBO"	"PLACEBO"	0	"Y"	"Y"	"Y"	"Y"	"ECOG=0"	0	"ECOG=0"	0	2008-10-27	"2008-10-27"	08:39:00	"08:39"	2008-10-28	"2008-10-28"	2008-12-30	"2008-12-30"	"ECOG=0 or ECOG=1"	0	"DM"	"Years"	"2008-10-27T08:39"	12:45:00	"12:45"	NA	""
"314"	"76"	"EFC6546"	"006546-336-000-202"	"336000202"	"ECOG=0 or ECOG=1"	0	"M"	1	"CAUCASIAN/WHITE"	1	"PLACEBO"	"PLACEBO"	0	"PLACEBO"	"PLACEBO"	0	"Y"	"Y"	"Y"	"Y"	"ECOG=0"	0	"ECOG=0"	0	2009-04-06	"2009-04-06"	08:02:00	"08:02"	2009-04-08	"2009-04-08"	2009-07-21	"2009-07-21"	"ECOG=0 or ECOG=1"	0	"DM"	"Years"	"2009-04-06T08:02"	10:00:00	"10:00"	NA	""
"315"	"68"	"EFC6546"	"006546-336-000-302"	"336000302"	"ECOG=0 or ECOG=1"	0	"M"	1	"CAUCASIAN/WHITE"	1	"PLACEBO"	"PLACEBO"	0	"PLACEBO"	"PLACEBO"	0	"Y"	"Y"	"Y"	"Y"	"ECOG=0"	0	"ECOG=0"	0	2009-05-04	"2009-05-04"	11:09:00	"11:09"	2009-05-07	"2009-05-07"	2009-10-01	"2009-10-01"	"ECOG=0 or ECOG=1"	0	"DM"	"Years"	"2009-05-04T11:09"	11:55:00	"11:55"	NA	""
"316"	"59"	"EFC6546"	"006546-336-000-401"	"336000401"	"ECOG=0 or ECOG=1"	0	"M"	1	"CAUCASIAN/WHITE"	1	"PLACEBO"	"PLACEBO"	0	"PLACEBO"	"PLACEBO"	0	"Y"	"Y"	"Y"	"Y"	"ECOG=0"	0	"ECOG=0"	0	2007-11-02	"2007-11-02"	13:41:00	"13:41"	2007-11-05	"2007-11-05"	2008-05-13	"2008-05-13"	"ECOG=0 or ECOG=1"	0	"DM"	"Years"	"2007-11-02T13:41"	13:50:00	"13:50"	NA	"XX:XX"
"317"	"64"	"EFC6546"	"006546-336-000-601"	"336000601"	"ECOG=0 or ECOG=1"	0	"M"	1	"CAUCASIAN/WHITE"	1	"PLACEBO"	"PLACEBO"	0	"PLACEBO"	"PLACEBO"	0	"Y"	"Y"	"Y"	"Y"	"ECOG=0"	0	"ECOG=0"	0	2007-12-07	"2007-12-07"	14:04:00	"14:04"	2007-12-10	"2007-12-10"	2008-01-21	"2008-01-21"	"ECOG=0 or ECOG=1"	0	"DM"	"Years"	"2007-12-07T14:04"	13:00:00	"13:00"	NA	""
"318"	"72"	"EFC6546"	"006546-336-000-702"	"336000702"	"ECOG=0 or ECOG=1"	0	"M"	1	"CAUCASIAN/WHITE"	1	"PLACEBO"	"PLACEBO"	0	"PLACEBO"	"PLACEBO"	0	"Y"	"Y"	"Y"	"Y"	"ECOG=1"	1	"ECOG=1"	1	2010-01-20	"2010-01-20"	11:13:00	"11:13"	2010-01-21	"2010-01-21"	2010-09-13	"2010-09-13"	"ECOG=0 or ECOG=1"	0	"DM"	"Years"	"2010-01-20T11:13"	12:10:00	"12:10"	12:00:00	"12:00"
"319"	"63"	"EFC6546"	"006546-336-000-801"	"336000801"	"ECOG=0 or ECOG=1"	0	"M"	1	"CAUCASIAN/WHITE"	1	"PLACEBO"	"PLACEBO"	0	"PLACEBO"	"PLACEBO"	0	"Y"	"Y"	"Y"	"Y"	"ECOG=0"	0	"ECOG=1"	1	2008-07-17	"2008-07-17"	08:29:00	"08:29"	2008-07-17	"2008-07-17"	2009-01-29	"2009-01-29"	"ECOG=0 or ECOG=1"	0	"DM"	"Years"	"2008-07-17T08:29"	14:45:00	"14:45"	NA	""
"320"	"74"	"EFC6546"	"006546-336-090-401"	"336090401"	""	NA	"M"	1	"OTHER"	99	"SCRNFAIL"	"SCREEN FAILURE"	NA	"SCRNFAIL"	"SCREEN FAILURE"	NA	"N"	"N"	"N"	"N"	""	NA	""	NA	NA	""	NA	""	NA	""	NA	""	""	NA	"DM"	"Years"	""	NA	""	NA	""
"321"	"72"	"EFC6546"	"006546-336-090-501"	"336090501"	""	NA	"M"	1	"CAUCASIAN/WHITE"	1	"SCRNFAIL"	"SCREEN FAILURE"	NA	"SCRNFAIL"	"SCREEN FAILURE"	NA	"N"	"N"	"N"	"N"	""	NA	""	NA	NA	""	NA	""	NA	""	NA	""	""	NA	"DM"	"Years"	""	NA	""	NA	""
"322"	"73"	"EFC6546"	"006546-336-090-601"	"336090601"	""	NA	"M"	1	"CAUCASIAN/WHITE"	1	"SCRNFAIL"	"SCREEN FAILURE"	NA	"SCRNFAIL"	"SCREEN FAILURE"	NA	"N"	"N"	"N"	"N"	""	NA	""	NA	NA	""	NA	""	NA	""	NA	""	""	NA	"DM"	"Years"	""	NA	""	NA	""
"323"	"76"	"EFC6546"	"006546-336-090-701"	"336090701"	""	NA	"M"	1	"CAUCASIAN/WHITE"	1	"SCRNFAIL"	"SCREEN FAILURE"	NA	"SCRNFAIL"	"SCREEN FAILURE"	NA	"N"	"N"	"N"	"N"	""	NA	""	NA	NA	""	NA	""	NA	""	NA	""	""	NA	"DM"	"Years"	""	NA	""	NA	""
"324"	"79"	"EFC6546"	"006546-336-100-401"	"336100401"	"ECOG=0 or ECOG=1"	0	"M"	1	"CAUCASIAN/WHITE"	1	"PLACEBO"	"PLACEBO"	0	"PLACEBO"	"PLACEBO"	0	"Y"	"Y"	"Y"	"Y"	"ECOG=1"	1	"ECOG=1"	1	2009-11-09	"2009-11-09"	13:43:00	"13:43"	2009-11-11	"2009-11-11"	2010-12-15	"2010-12-15"	"ECOG=0 or ECOG=1"	0	"DM"	"Years"	"2009-11-09T13:43"	11:55:00	"11:55"	11:15:00	"11:15"
"325"	"69"	"EFC6546"	"006546-340-096-401"	"340096401"	""	NA	"M"	1	"OTHER"	99	"SCRNFAIL"	"SCREEN FAILURE"	NA	"SCRNFAIL"	"SCREEN FAILURE"	NA	"N"	"N"	"N"	"N"	""	NA	""	NA	NA	""	NA	""	NA	""	NA	""	""	NA	"DM"	"Years"	""	NA	""	NA	""
"326"	">=85"	"EFC6546"	"006546-340-096-501"	"340096501"	""	NA	"M"	1	"CAUCASIAN/WHITE"	1	"SCRNFAIL"	"SCREEN FAILURE"	NA	"SCRNFAIL"	"SCREEN FAILURE"	NA	"N"	"N"	"N"	"N"	""	NA	""	NA	NA	""	NA	""	NA	""	NA	""	""	NA	"DM"	"Years"	""	NA	""	NA	""
"327"	"75"	"EFC6546"	"006546-340-096-601"	"340096601"	""	NA	"M"	1	"CAUCASIAN/WHITE"	1	"SCRNFAIL"	"SCREEN FAILURE"	NA	"SCRNFAIL"	"SCREEN FAILURE"	NA	"N"	"N"	"N"	"N"	""	NA	""	NA	NA	""	NA	""	NA	""	NA	""	""	NA	"DM"	"Years"	""	NA	""	NA	""
"328"	"77"	"EFC6546"	"006546-342-000-501"	"342000501"	"ECOG=0 or ECOG=1"	0	"M"	1	"CAUCASIAN/WHITE"	1	"PLACEBO"	"PLACEBO"	0	"PLACEBO"	"PLACEBO"	0	"Y"	"Y"	"Y"	"Y"	"ECOG=1"	1	"ECOG=1"	1	2009-11-28	"2009-11-28"	19:04:00	"19:04"	2009-12-01	"2009-12-01"	2010-03-04	"2010-03-04"	"ECOG=0 or ECOG=1"	0	"DM"	"Years"	"2009-11-28T19:04"	16:30:00	"16:30"	NA	""
"329"	"68"	"EFC6546"	"006546-342-090-401"	"342090401"	""	NA	"M"	1	"CAUCASIAN/WHITE"	1	"SCRNFAIL"	"SCREEN FAILURE"	NA	"SCRNFAIL"	"SCREEN FAILURE"	NA	"N"	"N"	"N"	"N"	""	NA	""	NA	NA	""	NA	""	NA	""	NA	""	""	NA	"DM"	"Years"	""	NA	""	NA	""
"330"	"61"	"EFC6546"	"006546-343-002-102"	"343002102"	"ECOG=0 or ECOG=1"	0	"M"	1	"CAUCASIAN/WHITE"	1	"PLACEBO"	"PLACEBO"	0	"PLACEBO"	"PLACEBO"	0	"Y"	"Y"	"Y"	"Y"	"ECOG=0"	0	"ECOG=0"	0	2009-09-14	"2009-09-14"	11:19:00	"11:19"	2009-09-14	"2009-09-14"	2010-02-02	"2010-02-02"	"ECOG=0 or ECOG=1"	0	"DM"	"Years"	"2009-09-14T11:19"	12:50:00	"12:50"	NA	""
"331"	"61"	"EFC6546"	"006546-343-002-202"	"343002202"	"ECOG=0 or ECOG=1"	0	"M"	1	"CAUCASIAN/WHITE"	1	"PLACEBO"	"PLACEBO"	0	"PLACEBO"	"PLACEBO"	0	"Y"	"Y"	"Y"	"Y"	"ECOG=1"	1	"ECOG=1"	1	2010-02-09	"2010-02-09"	09:59:00	"09:59"	2010-02-09	"2010-02-09"	2010-05-05	"2010-05-05"	"ECOG=0 or ECOG=1"	0	"DM"	"Years"	"2010-02-09T09:59"	12:30:00	"12:30"	NA	""
"332"	"67"	"EFC6546"	"006546-343-002-501"	"343002501"	"ECOG=0 or ECOG=1"	0	"M"	1	"CAUCASIAN/WHITE"	1	"PLACEBO"	"PLACEBO"	0	"PLACEBO"	"PLACEBO"	0	"Y"	"Y"	"Y"	"Y"	"ECOG=1"	1	"ECOG=1"	1	2008-04-08	"2008-04-08"	10:18:00	"10:18"	2008-04-08	"2008-04-08"	2008-07-22	"2008-07-22"	"ECOG=0 or ECOG=1"	0	"DM"	"Years"	"2008-04-08T10:18"	12:30:00	"12:30"	NA	""
"333"	"67"	"EFC6546"	"006546-343-002-701"	"343002701"	"ECOG=0 or ECOG=1"	0	"M"	1	"CAUCASIAN/WHITE"	1	"PLACEBO"	"PLACEBO"	0	"PLACEBO"	"PLACEBO"	0	"Y"	"Y"	"Y"	"Y"	"ECOG=1"	1	"ECOG=1"	1	2008-09-03	"2008-09-03"	09:31:00	"09:31"	2008-09-03	"2008-09-03"	2008-11-26	"2008-11-26"	"ECOG=0 or ECOG=1"	0	"DM"	"Years"	"2008-09-03T09:31"	13:45:00	"13:45"	NA	""
"334"	"72"	"EFC6546"	"006546-343-002-901"	"343002901"	"ECOG=0 or ECOG=1"	0	"M"	1	"CAUCASIAN/WHITE"	1	"PLACEBO"	"PLACEBO"	0	"PLACEBO"	"PLACEBO"	0	"Y"	"Y"	"Y"	"Y"	"ECOG=0"	0	"ECOG=0"	0	2008-12-08	"2008-12-08"	10:45:00	"10:45"	2008-12-08	"2008-12-08"	2010-09-30	"2010-09-30"	"ECOG=0 or ECOG=1"	0	"DM"	"Years"	"2008-12-08T10:45"	12:35:00	"12:35"	16:30:00	"16:30"
"335"	"77"	"EFC6546"	"006546-343-092-401"	"343092401"	""	NA	"M"	1	"CAUCASIAN/WHITE"	1	"SCRNFAIL"	"SCREEN FAILURE"	NA	"SCRNFAIL"	"SCREEN FAILURE"	NA	"N"	"N"	"N"	"N"	""	NA	""	NA	NA	""	NA	""	NA	""	NA	""	""	NA	"DM"	"Years"	""	NA	""	NA	""
"336"	"72"	"EFC6546"	"006546-343-092-501"	"343092501"	""	NA	"M"	1	"CAUCASIAN/WHITE"	1	"SCRNFAIL"	"SCREEN FAILURE"	NA	"SCRNFAIL"	"SCREEN FAILURE"	NA	"N"	"N"	"N"	"N"	""	NA	""	NA	NA	""	NA	""	NA	""	NA	""	""	NA	"DM"	"Years"	""	NA	""	NA	""
"337"	"70"	"EFC6546"	"006546-343-092-601"	"343092601"	""	NA	"M"	1	"CAUCASIAN/WHITE"	1	"SCRNFAIL"	"SCREEN FAILURE"	NA	"SCRNFAIL"	"SCREEN FAILURE"	NA	"N"	"N"	"N"	"N"	""	NA	""	NA	NA	""	NA	""	NA	""	NA	""	""	NA	"DM"	"Years"	""	NA	""	NA	""
"338"	"68"	"EFC6546"	"006546-343-092-701"	"343092701"	""	NA	"M"	1	"CAUCASIAN/WHITE"	1	"SCRNFAIL"	"SCREEN FAILURE"	NA	"SCRNFAIL"	"SCREEN FAILURE"	NA	"N"	"N"	"N"	"N"	""	NA	""	NA	NA	""	NA	""	NA	""	NA	""	""	NA	"DM"	"Years"	""	NA	""	NA	""
"339"	"75"	"EFC6546"	"006546-346-000-002"	"346000002"	"ECOG=0 or ECOG=1"	0	"M"	1	"CAUCASIAN/WHITE"	1	"PLACEBO"	"PLACEBO"	0	"PLACEBO"	"PLACEBO"	0	"Y"	"Y"	"Y"	"Y"	"ECOG=0"	0	"ECOG=0"	0	2009-08-12	"2009-08-12"	14:32:00	"14:32"	2009-08-13	"2009-08-13"	2010-03-18	"2010-03-18"	"ECOG=0 or ECOG=1"	0	"DM"	"Years"	"2009-08-12T14:32"	14:35:00	"14:35"	14:55:00	"14:55"
"340"	">=85"	"EFC6546"	"006546-346-000-202"	"346000202"	"ECOG=0 or ECOG=1"	0	"M"	1	"CAUCASIAN/WHITE"	1	"PLACEBO"	"PLACEBO"	0	"PLACEBO"	"PLACEBO"	0	"Y"	"Y"	"Y"	"Y"	"ECOG=1"	1	"ECOG=1"	1	2009-10-20	"2009-10-20"	15:31:00	"15:31"	2009-10-22	"2009-10-22"	2010-03-18	"2010-03-18"	"ECOG=0 or ECOG=1"	0	"DM"	"Years"	"2009-10-20T15:31"	13:00:00	"13:00"	NA	""
"341"	"72"	"EFC6546"	"006546-346-000-402"	"346000402"	"ECOG=0 or ECOG=1"	0	"M"	1	"CAUCASIAN/WHITE"	1	"PLACEBO"	"PLACEBO"	0	"PLACEBO"	"PLACEBO"	0	"Y"	"Y"	"Y"	"Y"	"ECOG=0"	0	"ECOG=0"	0	2009-11-25	"2009-11-25"	11:19:00	"11:19"	2009-11-26	"2009-11-26"	2010-08-26	"2010-08-26"	"ECOG=0 or ECOG=1"	0	"DM"	"Years"	"2009-11-25T11:19"	15:10:00	"15:10"	NA	"XX:XX"
"342"	"68"	"EFC6546"	"006546-346-000-502"	"346000502"	"ECOG=0 or ECOG=1"	0	"M"	1	"CAUCASIAN/WHITE"	1	"PLACEBO"	"PLACEBO"	0	"PLACEBO"	"PLACEBO"	0	"Y"	"Y"	"Y"	"Y"	"ECOG=0"	0	"ECOG=0"	0	2010-01-21	"2010-01-21"	15:26:00	"15:26"	2010-01-22	"2010-01-22"	2010-10-22	"2010-10-22"	"ECOG=0 or ECOG=1"	0	"DM"	"Years"	"2010-01-21T15:26"	11:08:00	"11:08"	13:10:00	"13:10"
"343"	"73"	"EFC6546"	"006546-346-000-601"	"346000601"	"ECOG=0 or ECOG=1"	0	"M"	1	"ASIAN/ORIENTAL"	3	"PLACEBO"	"PLACEBO"	0	"PLACEBO"	"PLACEBO"	0	"Y"	"Y"	"Y"	"Y"	"ECOG=0"	0	"ECOG=0"	0	2009-03-05	"2009-03-05"	10:55:00	"10:55"	2009-03-06	"2009-03-06"	2009-10-22	"2009-10-22"	"ECOG=0 or ECOG=1"	0	"DM"	"Years"	"2009-03-05T10:55"	10:15:00	"10:15"	NA	"XX:XX"
"344"	"68"	"EFC6546"	"006546-346-000-801"	"346000801"	"ECOG=0 or ECOG=1"	0	"M"	1	"CAUCASIAN/WHITE"	1	"PLACEBO"	"PLACEBO"	0	"PLACEBO"	"PLACEBO"	0	"Y"	"Y"	"Y"	"Y"	"ECOG=0"	0	"ECOG=0"	0	2009-05-26	"2009-05-26"	14:35:00	"14:35"	2009-05-28	"2009-05-28"	2010-01-28	"2010-01-28"	"ECOG=0 or ECOG=1"	0	"DM"	"Years"	"2009-05-26T14:35"	15:08:00	"15:08"	15:20:00	"15:20"
"345"	"73"	"EFC6546"	"006546-346-000-901"	"346000901"	"ECOG=0 or ECOG=1"	0	"M"	1	"CAUCASIAN/WHITE"	1	"PLACEBO"	"PLACEBO"	0	"PLACEBO"	"PLACEBO"	0	"Y"	"Y"	"Y"	"Y"	"ECOG=0"	0	"ECOG=0"	0	2009-07-07	"2009-07-07"	14:53:00	"14:53"	2009-07-09	"2009-07-09"	2010-02-25	"2010-02-25"	"ECOG=0 or ECOG=1"	0	"DM"	"Years"	"2009-07-07T14:53"	14:00:00	"14:00"	12:35:00	"12:35"
"346"	"71"	"EFC6546"	"006546-346-100-501"	"346100501"	"ECOG=0 or ECOG=1"	0	"M"	1	"CAUCASIAN/WHITE"	1	"PLACEBO"	"PLACEBO"	0	"PLACEBO"	"PLACEBO"	0	"Y"	"Y"	"Y"	"Y"	"ECOG=0"	0	"ECOG=0"	0	2009-08-17	"2009-08-17"	09:48:00	"09:48"	2009-08-18	"2009-08-18"	2010-04-08	"2010-04-08"	"ECOG=0 or ECOG=1"	0	"DM"	"Years"	"2009-08-17T09:48"	15:40:00	"15:40"	16:00:00	"16:00"
"347"	"75"	"EFC6546"	"006546-346-100-601"	"346100601"	"ECOG=0 or ECOG=1"	0	"M"	1	"CAUCASIAN/WHITE"	1	"PLACEBO"	"PLACEBO"	0	"PLACEBO"	"PLACEBO"	0	"Y"	"Y"	"Y"	"Y"	"ECOG=0"	0	"ECOG=0"	0	2009-08-24	"2009-08-24"	10:21:00	"10:21"	2009-08-24	"2009-08-24"	2010-01-19	"2010-01-19"	"ECOG=0 or ECOG=1"	0	"DM"	"Years"	"2009-08-24T10:21"	16:00:00	"16:00"	NA	""
"348"	"71"	"EFC6546"	"006546-346-100-901"	"346100901"	"ECOG=0 or ECOG=1"	0	"M"	1	"CAUCASIAN/WHITE"	1	"PLACEBO"	"PLACEBO"	0	"PLACEBO"	"PLACEBO"	0	"Y"	"Y"	"Y"	"Y"	"ECOG=0"	0	"ECOG=0"	0	2009-11-02	"2009-11-02"	13:49:00	"13:49"	2009-11-02	"2009-11-02"	2010-05-20	"2010-05-20"	"ECOG=0 or ECOG=1"	0	"DM"	"Years"	"2009-11-02T13:49"	16:00:00	"16:00"	12:10:00	"12:10"
"349"	"59"	"EFC6546"	"006546-346-190-401"	"346190401"	""	NA	"M"	1	"CAUCASIAN/WHITE"	1	"SCRNFAIL"	"SCREEN FAILURE"	NA	"SCRNFAIL"	"SCREEN FAILURE"	NA	"N"	"N"	"N"	"N"	""	NA	""	NA	NA	""	NA	""	NA	""	NA	""	""	NA	"DM"	"Years"	""	NA	""	NA	""
"350"	"65"	"EFC6546"	"006546-346-190-501"	"346190501"	""	NA	"M"	1	"CAUCASIAN/WHITE"	1	"SCRNFAIL"	"SCREEN FAILURE"	NA	"SCRNFAIL"	"SCREEN FAILURE"	NA	"N"	"N"	"N"	"N"	""	NA	""	NA	NA	""	NA	""	NA	""	NA	""	""	NA	"DM"	"Years"	""	NA	""	NA	""
"351"	"73"	"EFC6546"	"006546-350-096-401"	"350096401"	""	NA	"M"	1	"CAUCASIAN/WHITE"	1	"SCRNFAIL"	"SCREEN FAILURE"	NA	"SCRNFAIL"	"SCREEN FAILURE"	NA	"N"	"N"	"N"	"N"	""	NA	""	NA	NA	""	NA	""	NA	""	NA	""	""	NA	"DM"	"Years"	""	NA	""	NA	""
"352"	"83"	"EFC6546"	"006546-352-000-102"	"352000102"	"ECOG=0 or ECOG=1"	0	"M"	1	"CAUCASIAN/WHITE"	1	"PLACEBO"	"PLACEBO"	0	"PLACEBO"	"PLACEBO"	0	"Y"	"Y"	"Y"	"Y"	"ECOG=1"	1	"ECOG=1"	1	2009-03-18	"2009-03-18"	09:57:00	"09:57"	2009-03-18	"2009-03-18"	2009-04-08	"2009-04-08"	"ECOG=0 or ECOG=1"	0	"DM"	"Years"	"2009-03-18T09:57"	10:30:00	"10:30"	NA	""
"353"	"72"	"EFC6546"	"006546-352-000-202"	"352000202"	"ECOG=0 or ECOG=1"	0	"M"	1	"CAUCASIAN/WHITE"	1	"PLACEBO"	"PLACEBO"	0	"6 MG"	"AVE0005A"	6	"Y"	"Y"	"Y"	"Y"	"ECOG=1"	1	"ECOG=1"	1	2009-03-31	"2009-03-31"	09:24:00	"09:24"	2009-03-31	"2009-03-31"	2009-10-21	"2009-10-21"	"ECOG=0 or ECOG=1"	0	"DM"	"Years"	"2009-03-31T09:24"	10:00:00	"10:00"	NA	""
"354"	"81"	"EFC6546"	"006546-352-000-302"	"352000302"	"ECOG=0 or ECOG=1"	0	"M"	1	"CAUCASIAN/WHITE"	1	"PLACEBO"	"PLACEBO"	0	"PLACEBO"	"PLACEBO"	0	"Y"	"Y"	"Y"	"Y"	"ECOG=1"	1	"ECOG=1"	1	2009-03-31	"2009-03-31"	10:20:00	"10:20"	2009-03-31	"2009-03-31"	2009-10-07	"2009-10-07"	"ECOG=0 or ECOG=1"	0	"DM"	"Years"	"2009-03-31T10:20"	11:00:00	"11:00"	NA	""
"355"	"73"	"EFC6546"	"006546-352-000-401"	"352000401"	"ECOG=0 or ECOG=1"	0	"M"	1	"CAUCASIAN/WHITE"	1	"PLACEBO"	"PLACEBO"	0	"PLACEBO"	"PLACEBO"	0	"Y"	"Y"	"Y"	"Y"	"ECOG=1"	1	"ECOG=1"	1	2008-03-19	"2008-03-19"	10:39:00	"10:39"	2008-03-19	"2008-03-19"	2008-08-14	"2008-08-14"	"ECOG=0 or ECOG=1"	0	"DM"	"Years"	"2008-03-19T10:39"	11:30:00	"11:30"	NA	""
"356"	"71"	"EFC6546"	"006546-352-000-501"	"352000501"	"ECOG=0 or ECOG=1"	0	"M"	1	"CAUCASIAN/WHITE"	1	"PLACEBO"	"PLACEBO"	0	"PLACEBO"	"PLACEBO"	0	"Y"	"Y"	"Y"	"Y"	"ECOG=1"	1	"ECOG=1"	1	2008-04-08	"2008-04-08"	13:57:00	"13:57"	2008-04-09	"2008-04-09"	2008-08-21	"2008-08-21"	"ECOG=0 or ECOG=1"	0	"DM"	"Years"	"2008-04-08T13:57"	11:00:00	"11:00"	NA	""
"357"	"72"	"EFC6546"	"006546-352-000-502"	"352000502"	"ECOG=0 or ECOG=1"	0	"M"	1	"CAUCASIAN/WHITE"	1	"PLACEBO"	"PLACEBO"	0	"PLACEBO"	"PLACEBO"	0	"Y"	"Y"	"Y"	"Y"	"ECOG=1"	1	"ECOG=1"	1	2009-04-23	"2009-04-23"	10:39:00	"10:39"	2009-04-23	"2009-04-23"	2010-12-15	"2010-12-15"	"ECOG=0 or ECOG=1"	0	"DM"	"Years"	"2009-04-23T10:39"	11:10:00	"11:10"	11:00:00	"11:00"
"358"	"60"	"EFC6546"	"006546-352-000-602"	"352000602"	"ECOG=0 or ECOG=1"	0	"M"	1	"CAUCASIAN/WHITE"	1	"PLACEBO"	"PLACEBO"	0	"PLACEBO"	"PLACEBO"	0	"Y"	"Y"	"Y"	"Y"	"ECOG=1"	1	"ECOG=1"	1	2010-01-13	"2010-01-13"	09:53:00	"09:53"	2010-01-13	"2010-01-13"	2010-11-04	"2010-11-04"	"ECOG=0 or ECOG=1"	0	"DM"	"Years"	"2010-01-13T09:53"	10:30:00	"10:30"	NA	""
"359"	"44"	"EFC6546"	"006546-352-090-401"	"352090401"	""	NA	"M"	1	"CAUCASIAN/WHITE"	1	"SCRNFAIL"	"SCREEN FAILURE"	NA	"SCRNFAIL"	"SCREEN FAILURE"	NA	"N"	"N"	"N"	"N"	""	NA	""	NA	NA	""	NA	""	NA	""	NA	""	""	NA	"DM"	"Years"	""	NA	""	NA	""
"360"	"73"	"EFC6546"	"006546-356-000-002"	"356000002"	"ECOG=0 or ECOG=1"	0	"M"	1	"CAUCASIAN/WHITE"	1	"PLACEBO"	"PLACEBO"	0	"PLACEBO"	"PLACEBO"	0	"Y"	"Y"	"Y"	"Y"	"ECOG=1"	1	"ECOG=1"	1	2009-06-30	"2009-06-30"	09:23:00	"09:23"	2009-07-02	"2009-07-02"	2009-10-29	"2009-10-29"	"ECOG=0 or ECOG=1"	0	"DM"	"Years"	"2009-06-30T09:23"	10:35:00	"10:35"	NA	""
"361"	"65"	"EFC6546"	"006546-356-000-401"	"356000401"	"ECOG=2"	1	"M"	1	"CAUCASIAN/WHITE"	1	"PLACEBO"	"PLACEBO"	0	"PLACEBO"	"PLACEBO"	0	"Y"	"Y"	"Y"	"Y"	"ECOG=2"	2	"ECOG=2"	2	2007-12-13	"2007-12-13"	11:15:00	"11:15"	2007-12-13	"2007-12-13"	2008-01-24	"2008-01-24"	"ECOG=2"	1	"DM"	"Years"	"2007-12-13T11:15"	13:00:00	"13:00"	NA	""
"362"	"50"	"EFC6546"	"006546-356-000-501"	"356000501"	"ECOG=0 or ECOG=1"	0	"M"	1	"CAUCASIAN/WHITE"	1	"PLACEBO"	"PLACEBO"	0	"PLACEBO"	"PLACEBO"	0	"Y"	"Y"	"Y"	"Y"	"ECOG=1"	1	"ECOG=1"	1	2008-05-22	"2008-05-22"	09:47:00	"09:47"	2008-05-22	"2008-05-22"	2008-07-03	"2008-07-03"	"ECOG=0 or ECOG=1"	0	"DM"	"Years"	"2008-05-22T09:47"	12:00:00	"12:00"	NA	""
"363"	"58"	"EFC6546"	"006546-356-000-701"	"356000701"	"ECOG=0 or ECOG=1"	0	"M"	1	"CAUCASIAN/WHITE"	1	"PLACEBO"	"PLACEBO"	0	"PLACEBO"	"PLACEBO"	0	"Y"	"Y"	"Y"	"Y"	"ECOG=1"	1	"ECOG=1"	1	2008-11-18	"2008-11-18"	14:46:00	"14:46"	2008-11-20	"2008-11-20"	2008-12-31	"2008-12-31"	"ECOG=0 or ECOG=1"	0	"DM"	"Years"	"2008-11-18T14:46"	11:50:00	"11:50"	NA	""
"364"	"65"	"EFC6546"	"006546-356-000-801"	"356000801"	"ECOG=0 or ECOG=1"	0	"M"	1	"CAUCASIAN/WHITE"	1	"PLACEBO"	"PLACEBO"	0	"PLACEBO"	"PLACEBO"	0	"Y"	"Y"	"Y"	"Y"	"ECOG=0"	0	"ECOG=0"	0	2008-12-10	"2008-12-10"	14:25:00	"14:25"	2008-12-11	"2008-12-11"	2009-03-26	"2009-03-26"	"ECOG=0 or ECOG=1"	0	"DM"	"Years"	"2008-12-10T14:25"	10:20:00	"10:20"	NA	""
"365"	"62"	"EFC6546"	"006546-362-090-401"	"362090401"	""	NA	"M"	1	"CAUCASIAN/WHITE"	1	"SCRNFAIL"	"SCREEN FAILURE"	NA	"SCRNFAIL"	"SCREEN FAILURE"	NA	"N"	"N"	"N"	"N"	""	NA	""	NA	NA	""	NA	""	NA	""	NA	""	""	NA	"DM"	"Years"	""	NA	""	NA	""
"366"	"55"	"EFC6546"	"006546-362-090-501"	"362090501"	""	NA	"M"	1	"CAUCASIAN/WHITE"	1	"SCRNFAIL"	"SCREEN FAILURE"	NA	"SCRNFAIL"	"SCREEN FAILURE"	NA	"N"	"N"	"N"	"N"	""	NA	""	NA	NA	""	NA	""	NA	""	NA	""	""	NA	"DM"	"Years"	""	NA	""	NA	""
"367"	"65"	"EFC6546"	"006546-362-090-601"	"362090601"	""	NA	"M"	1	"CAUCASIAN/WHITE"	1	"SCRNFAIL"	"SCREEN FAILURE"	NA	"SCRNFAIL"	"SCREEN FAILURE"	NA	"N"	"N"	"N"	"N"	""	NA	""	NA	NA	""	NA	""	NA	""	NA	""	""	NA	"DM"	"Years"	""	NA	""	NA	""
"368"	"66"	"EFC6546"	"006546-366-000-002"	"366000002"	"ECOG=0 or ECOG=1"	0	"M"	1	"CAUCASIAN/WHITE"	1	"PLACEBO"	"PLACEBO"	0	"PLACEBO"	"PLACEBO"	0	"Y"	"Y"	"Y"	"Y"	"ECOG=1"	1	"ECOG=1"	1	2009-05-11	"2009-05-11"	08:35:00	"08:35"	2009-05-11	"2009-05-11"	2009-12-08	"2009-12-08"	"ECOG=0 or ECOG=1"	0	"DM"	"Years"	"2009-05-11T08:35"	12:10:00	"12:10"	NA	"XX:XX"
"369"	"65"	"EFC6546"	"006546-366-000-501"	"366000501"	"ECOG=0 or ECOG=1"	0	"M"	1	"CAUCASIAN/WHITE"	1	"PLACEBO"	"PLACEBO"	0	"PLACEBO"	"PLACEBO"	0	"Y"	"Y"	"Y"	"Y"	"ECOG=0"	0	"ECOG=0"	0	2008-07-11	"2008-07-11"	13:41:00	"13:41"	2008-07-14	"2008-07-14"	2009-07-09	"2009-07-09"	"ECOG=0 or ECOG=1"	0	"DM"	"Years"	"2008-07-11T13:41"	10:45:00	"10:45"	NA	"XX:XX"
"370"	"63"	"EFC6546"	"006546-366-000-801"	"366000801"	"ECOG=0 or ECOG=1"	0	"M"	1	"CAUCASIAN/WHITE"	1	"PLACEBO"	"PLACEBO"	0	"PLACEBO"	"PLACEBO"	0	"Y"	"Y"	"Y"	"Y"	"ECOG=0"	0	"ECOG=0"	0	2009-02-17	"2009-02-17"	14:16:00	"14:16"	2009-02-19	"2009-02-19"	2011-07-28	"2011-07-28"	"ECOG=0 or ECOG=1"	0	"DM"	"Years"	"2009-02-17T14:16"	NA	"XX:XX"	15:00:00	"15:00"
"371"	"53"	"EFC6546"	"006546-366-090-401"	"366090401"	""	NA	"M"	1	"CAUCASIAN/WHITE"	1	"SCRNFAIL"	"SCREEN FAILURE"	NA	"SCRNFAIL"	"SCREEN FAILURE"	NA	"N"	"N"	"N"	"N"	""	NA	""	NA	NA	""	NA	""	NA	""	NA	""	""	NA	"DM"	"Years"	""	NA	""	NA	""
"372"	"76"	"EFC6546"	"006546-366-090-501"	"366090501"	""	NA	"M"	1	"CAUCASIAN/WHITE"	1	"SCRNFAIL"	"SCREEN FAILURE"	NA	"SCRNFAIL"	"SCREEN FAILURE"	NA	"N"	"N"	"N"	"N"	""	NA	""	NA	NA	""	NA	""	NA	""	NA	""	""	NA	"DM"	"Years"	""	NA	""	NA	""
"373"	"79"	"EFC6546"	"006546-366-090-601"	"366090601"	""	NA	"M"	1	"CAUCASIAN/WHITE"	1	"SCRNFAIL"	"SCREEN FAILURE"	NA	"SCRNFAIL"	"SCREEN FAILURE"	NA	"N"	"N"	"N"	"N"	""	NA	""	NA	NA	""	NA	""	NA	""	NA	""	""	NA	"DM"	"Years"	""	NA	""	NA	""
"374"	"75"	"EFC6546"	"006546-366-090-701"	"366090701"	""	NA	"M"	1	"CAUCASIAN/WHITE"	1	"SCRNFAIL"	"SCREEN FAILURE"	NA	"SCRNFAIL"	"SCREEN FAILURE"	NA	"N"	"N"	"N"	"N"	""	NA	""	NA	NA	""	NA	""	NA	""	NA	""	""	NA	"DM"	"Years"	""	NA	""	NA	""
"375"	"76"	"EFC6546"	"006546-372-000-601"	"372000601"	"ECOG=2"	1	"M"	1	"CAUCASIAN/WHITE"	1	"PLACEBO"	"PLACEBO"	0	"PLACEBO"	"PLACEBO"	0	"Y"	"Y"	"Y"	"Y"	"ECOG=2"	2	"ECOG=2"	2	2009-10-04	"2009-10-04"	19:02:00	"19:02"	2009-10-05	"2009-10-05"	2010-07-07	"2010-07-07"	"ECOG=2"	1	"DM"	"Years"	"2009-10-04T19:02"	13:30:00	"13:30"	NA	""
"376"	"75"	"EFC6546"	"006546-372-090-401"	"372090401"	""	NA	"M"	1	"CAUCASIAN/WHITE"	1	"SCRNFAIL"	"SCREEN FAILURE"	NA	"SCRNFAIL"	"SCREEN FAILURE"	NA	"N"	"N"	"N"	"N"	""	NA	""	NA	NA	""	NA	""	NA	""	NA	""	""	NA	"DM"	"Years"	""	NA	""	NA	""
"377"	"81"	"EFC6546"	"006546-372-090-501"	"372090501"	""	NA	"M"	1	"CAUCASIAN/WHITE"	1	"SCRNFAIL"	"SCREEN FAILURE"	NA	"SCRNFAIL"	"SCREEN FAILURE"	NA	"N"	"N"	"N"	"N"	""	NA	""	NA	NA	""	NA	""	NA	""	NA	""	""	NA	"DM"	"Years"	""	NA	""	NA	""
"378"	"64"	"EFC6546"	"006546-376-000-002"	"376000002"	"ECOG=0 or ECOG=1"	0	"M"	1	"CAUCASIAN/WHITE"	1	"PLACEBO"	"PLACEBO"	0	"PLACEBO"	"PLACEBO"	0	"Y"	"Y"	"Y"	"Y"	"ECOG=1"	1	"ECOG=1"	1	2008-11-06	"2008-11-06"	09:08:00	"09:08"	2008-11-06	"2008-11-06"	2009-04-23	"2009-04-23"	"ECOG=0 or ECOG=1"	0	"DM"	"Years"	"2008-11-06T09:08"	NA	"XX:XX"	NA	"XX:XX"
"379"	"53"	"EFC6546"	"006546-376-000-202"	"376000202"	"ECOG=0 or ECOG=1"	0	"M"	1	"ASIAN/ORIENTAL"	3	"PLACEBO"	"PLACEBO"	0	"PLACEBO"	"PLACEBO"	0	"Y"	"Y"	"Y"	"Y"	"ECOG=1"	1	"ECOG=1"	1	2008-12-31	"2008-12-31"	10:59:00	"10:59"	2008-12-31	"2008-12-31"	2009-02-11	"2009-02-11"	"ECOG=0 or ECOG=1"	0	"DM"	"Years"	"2008-12-31T10:59"	NA	"XX:XX"	NA	""
"380"	"65"	"EFC6546"	"006546-376-000-302"	"376000302"	"ECOG=0 or ECOG=1"	0	"M"	1	"CAUCASIAN/WHITE"	1	"PLACEBO"	"PLACEBO"	0	"PLACEBO"	"PLACEBO"	0	"Y"	"Y"	"Y"	"Y"	"ECOG=1"	1	"ECOG=1"	1	2009-04-06	"2009-04-06"	10:41:00	"10:41"	2009-04-06	"2009-04-06"	2009-11-02	"2009-11-02"	"ECOG=0 or ECOG=1"	0	"DM"	"Years"	"2009-04-06T10:41"	NA	"XX:XX"	NA	"XX:XX"
"381"	"63"	"EFC6546"	"006546-376-000-401"	"376000401"	"ECOG=0 or ECOG=1"	0	"M"	1	"CAUCASIAN/WHITE"	1	"PLACEBO"	"PLACEBO"	0	"PLACEBO"	"PLACEBO"	0	"Y"	"Y"	"Y"	"Y"	"ECOG=0"	0	"ECOG=0"	0	2007-09-28	"2007-09-28"	13:42:00	"13:42"	2007-09-28	"2007-09-28"	2008-06-11	"2008-06-11"	"ECOG=0 or ECOG=1"	0	"DM"	"Years"	"2007-09-28T13:42"	NA	"XX:XX"	NA	"XX:XX"
"382"	"59"	"EFC6546"	"006546-376-000-901"	"376000901"	"ECOG=0 or ECOG=1"	0	"M"	1	"CAUCASIAN/WHITE"	1	"PLACEBO"	"PLACEBO"	0	"PLACEBO"	"PLACEBO"	0	"Y"	"Y"	"Y"	"Y"	"ECOG=0"	0	"ECOG=0"	0	2008-10-22	"2008-10-22"	15:16:00	"15:16"	2008-10-23	"2008-10-23"	2009-03-19	"2009-03-19"	"ECOG=0 or ECOG=1"	0	"DM"	"Years"	"2008-10-22T15:16"	NA	"XX:XX"	NA	"XX:XX"
"383"	"69"	"EFC6546"	"006546-386-000-302"	"386000302"	"ECOG=0 or ECOG=1"	0	"M"	1	"CAUCASIAN/WHITE"	1	"PLACEBO"	"PLACEBO"	0	"PLACEBO"	"PLACEBO"	0	"Y"	"Y"	"Y"	"Y"	"ECOG=0"	0	"ECOG=0"	0	2009-05-19	"2009-05-19"	07:38:00	"07:38"	2009-05-19	"2009-05-19"	2009-10-13	"2009-10-13"	"ECOG=0 or ECOG=1"	0	"DM"	"Years"	"2009-05-19T07:38"	11:30:00	"11:30"	10:14:00	"10:14"
"384"	"61"	"EFC6546"	"006546-386-000-402"	"386000402"	"ECOG=0 or ECOG=1"	0	"M"	1	"CAUCASIAN/WHITE"	1	"PLACEBO"	"PLACEBO"	0	"PLACEBO"	"PLACEBO"	0	"Y"	"Y"	"Y"	"Y"	"ECOG=1"	1	"ECOG=1"	1	2009-06-05	"2009-06-05"	07:51:00	"07:51"	2009-06-05	"2009-06-05"	2009-07-17	"2009-07-17"	"ECOG=0 or ECOG=1"	0	"DM"	"Years"	"2009-06-05T07:51"	12:20:00	"12:20"	NA	""
"385"	">=85"	"EFC6546"	"006546-386-000-501"	"386000501"	"ECOG=0 or ECOG=1"	0	"M"	1	"CAUCASIAN/WHITE"	1	"PLACEBO"	"PLACEBO"	0	"PLACEBO"	"PLACEBO"	0	"Y"	"Y"	"Y"	"Y"	"ECOG=1"	1	"ECOG=1"	1	2007-09-20	"2007-09-20"	09:43:00	"09:43"	2007-09-21	"2007-09-21"	2008-02-22	"2008-02-22"	"ECOG=0 or ECOG=1"	0	"DM"	"Years"	"2007-09-20T09:43"	09:27:00	"09:27"	12:25:00	"12:25"
"386"	"66"	"EFC6546"	"006546-386-000-502"	"386000502"	"ECOG=0 or ECOG=1"	0	"M"	1	"CAUCASIAN/WHITE"	1	"PLACEBO"	"PLACEBO"	0	"PLACEBO"	"PLACEBO"	0	"Y"	"Y"	"Y"	"Y"	"ECOG=0"	0	"ECOG=0"	0	2010-01-20	"2010-01-20"	10:25:00	"10:25"	2010-01-22	"2010-01-22"	2010-05-07	"2010-05-07"	"ECOG=0 or ECOG=1"	0	"DM"	"Years"	"2010-01-20T10:25"	12:30:00	"12:30"	NA	""
"387"	"66"	"EFC6546"	"006546-386-090-401"	"386090401"	""	NA	"M"	1	"CAUCASIAN/WHITE"	1	"SCRNFAIL"	"SCREEN FAILURE"	NA	"SCRNFAIL"	"SCREEN FAILURE"	NA	"N"	"N"	"N"	"N"	""	NA	""	NA	NA	""	NA	""	NA	""	NA	""	""	NA	"DM"	"Years"	""	NA	""	NA	""
"388"	"82"	"EFC6546"	"006546-386-090-501"	"386090501"	""	NA	"M"	1	"CAUCASIAN/WHITE"	1	"SCRNFAIL"	"SCREEN FAILURE"	NA	"SCRNFAIL"	"SCREEN FAILURE"	NA	"N"	"N"	"N"	"N"	""	NA	""	NA	NA	""	NA	""	NA	""	NA	""	""	NA	"DM"	"Years"	""	NA	""	NA	""
"389"	"76"	"EFC6546"	"006546-386-090-601"	"386090601"	""	NA	"M"	1	"CAUCASIAN/WHITE"	1	"SCRNFAIL"	"SCREEN FAILURE"	NA	"SCRNFAIL"	"SCREEN FAILURE"	NA	"N"	"N"	"N"	"N"	""	NA	""	NA	NA	""	NA	""	NA	""	NA	""	""	NA	"DM"	"Years"	""	NA	""	NA	""
"390"	"77"	"EFC6546"	"006546-386-090-701"	"386090701"	""	NA	"M"	1	"CAUCASIAN/WHITE"	1	"SCRNFAIL"	"SCREEN FAILURE"	NA	"SCRNFAIL"	"SCREEN FAILURE"	NA	"N"	"N"	"N"	"N"	""	NA	""	NA	NA	""	NA	""	NA	""	NA	""	""	NA	"DM"	"Years"	""	NA	""	NA	""
"391"	"78"	"EFC6546"	"006546-386-090-801"	"386090801"	""	NA	"M"	1	"CAUCASIAN/WHITE"	1	"SCRNFAIL"	"SCREEN FAILURE"	NA	"SCRNFAIL"	"SCREEN FAILURE"	NA	"N"	"N"	"N"	"N"	""	NA	""	NA	NA	""	NA	""	NA	""	NA	""	""	NA	"DM"	"Years"	""	NA	""	NA	""
"392"	"67"	"EFC6546"	"006546-386-090-901"	"386090901"	""	NA	"M"	1	"CAUCASIAN/WHITE"	1	"SCRNFAIL"	"SCREEN FAILURE"	NA	"SCRNFAIL"	"SCREEN FAILURE"	NA	"N"	"N"	"N"	"N"	""	NA	""	NA	NA	""	NA	""	NA	""	NA	""	""	NA	"DM"	"Years"	""	NA	""	NA	""
"393"	"70"	"EFC6546"	"006546-392-090-401"	"392090401"	""	NA	"M"	1	"CAUCASIAN/WHITE"	1	"SCRNFAIL"	"SCREEN FAILURE"	NA	"SCRNFAIL"	"SCREEN FAILURE"	NA	"N"	"N"	"N"	"N"	""	NA	""	NA	NA	""	NA	""	NA	""	NA	""	""	NA	"DM"	"Years"	""	NA	""	NA	""
"394"	"58"	"EFC6546"	"006546-396-000-401"	"396000401"	"ECOG=0 or ECOG=1"	0	"M"	1	"CAUCASIAN/WHITE"	1	"PLACEBO"	"PLACEBO"	0	"PLACEBO"	"PLACEBO"	0	"Y"	"Y"	"Y"	"Y"	"ECOG=0"	0	"ECOG=0"	0	2008-02-11	"2008-02-11"	09:23:00	"09:23"	2008-02-12	"2008-02-12"	2008-07-29	"2008-07-29"	"ECOG=0 or ECOG=1"	0	"DM"	"Years"	"2008-02-11T09:23"	NA	"XX:XX"	NA	""
"395"	"68"	"EFC6546"	"006546-396-000-601"	"396000601"	"ECOG=0 or ECOG=1"	0	"M"	1	"CAUCASIAN/WHITE"	1	"PLACEBO"	"PLACEBO"	0	"PLACEBO"	"PLACEBO"	0	"Y"	"Y"	"Y"	"Y"	"ECOG=0"	0	"ECOG=0"	0	2008-09-22	"2008-09-22"	09:29:00	"09:29"	2008-09-23	"2008-09-23"	2009-06-30	"2009-06-30"	"ECOG=0 or ECOG=1"	0	"DM"	"Years"	"2008-09-22T09:29"	09:47:00	"09:47"	NA	""
"396"	"64"	"EFC6546"	"006546-396-000-801"	"396000801"	"ECOG=0 or ECOG=1"	0	"M"	1	"CAUCASIAN/WHITE"	1	"PLACEBO"	"PLACEBO"	0	"PLACEBO"	"PLACEBO"	0	"Y"	"Y"	"Y"	"Y"	"ECOG=1"	1	"ECOG=1"	1	2008-10-20	"2008-10-20"	09:35:00	"09:35"	2008-10-21	"2008-10-21"	2009-07-21	"2009-07-21"	"ECOG=0 or ECOG=1"	0	"DM"	"Years"	"2008-10-20T09:35"	10:15:00	"10:15"	13:35:00	"13:35"
"397"	"69"	"EFC6546"	"006546-396-090-401"	"396090401"	""	NA	"M"	1	"CAUCASIAN/WHITE"	1	"SCRNFAIL"	"SCREEN FAILURE"	NA	"SCRNFAIL"	"SCREEN FAILURE"	NA	"N"	"N"	"N"	"N"	""	NA	""	NA	NA	""	NA	""	NA	""	NA	""	""	NA	"DM"	"Years"	""	NA	""	NA	""
"398"	"79"	"EFC6546"	"006546-396-090-501"	"396090501"	""	NA	"M"	1	"CAUCASIAN/WHITE"	1	"SCRNFAIL"	"SCREEN FAILURE"	NA	"SCRNFAIL"	"SCREEN FAILURE"	NA	"N"	"N"	"N"	"N"	""	NA	""	NA	NA	""	NA	""	NA	""	NA	""	""	NA	"DM"	"Years"	""	NA	""	NA	""
"399"	"81"	"EFC6546"	"006546-396-090-601"	"396090601"	""	NA	"M"	1	"CAUCASIAN/WHITE"	1	"SCRNFAIL"	"SCREEN FAILURE"	NA	"SCRNFAIL"	"SCREEN FAILURE"	NA	"N"	"N"	"N"	"N"	""	NA	""	NA	NA	""	NA	""	NA	""	NA	""	""	NA	"DM"	"Years"	""	NA	""	NA	""
"400"	"74"	"EFC6546"	"006546-396-090-701"	"396090701"	""	NA	"M"	1	"CAUCASIAN/WHITE"	1	"SCRNFAIL"	"SCREEN FAILURE"	NA	"SCRNFAIL"	"SCREEN FAILURE"	NA	"N"	"N"	"N"	"N"	""	NA	""	NA	NA	""	NA	""	NA	""	NA	""	""	NA	"DM"	"Years"	""	NA	""	NA	""
"401"	"80"	"EFC6546"	"006546-396-090-801"	"396090801"	""	NA	"M"	1	"CAUCASIAN/WHITE"	1	"SCRNFAIL"	"SCREEN FAILURE"	NA	"SCRNFAIL"	"SCREEN FAILURE"	NA	"N"	"N"	"N"	"N"	""	NA	""	NA	NA	""	NA	""	NA	""	NA	""	""	NA	"DM"	"Years"	""	NA	""	NA	""
"402"	"64"	"EFC6546"	"006546-396-090-901"	"396090901"	""	NA	"M"	1	"CAUCASIAN/WHITE"	1	"SCRNFAIL"	"SCREEN FAILURE"	NA	"SCRNFAIL"	"SCREEN FAILURE"	NA	"N"	"N"	"N"	"N"	""	NA	""	NA	NA	""	NA	""	NA	""	NA	""	""	NA	"DM"	"Years"	""	NA	""	NA	""
"403"	"64"	"EFC6546"	"006546-403-106-003"	"403106003"	"ECOG=0 or ECOG=1"	0	"M"	1	"CAUCASIAN/WHITE"	1	"PLACEBO"	"PLACEBO"	0	"PLACEBO"	"PLACEBO"	0	"Y"	"Y"	"Y"	"Y"	"ECOG=1"	1	"ECOG=1"	1	2010-02-01	"2010-02-01"	19:59:00	"19:59"	2010-02-02	"2010-02-02"	2010-06-30	"2010-06-30"	"ECOG=0 or ECOG=1"	0	"DM"	"Years"	"2010-02-01T19:59"	13:00:00	"13:00"	NA	""
"404"	"63"	"EFC6546"	"006546-403-106-103"	"403106103"	"ECOG=0 or ECOG=1"	0	"M"	1	"CAUCASIAN/WHITE"	1	"PLACEBO"	"PLACEBO"	0	"PLACEBO"	"PLACEBO"	0	"Y"	"Y"	"Y"	"Y"	"ECOG=1"	1	"ECOG=1"	1	2010-02-02	"2010-02-02"	09:16:00	"09:16"	2010-02-02	"2010-02-02"	2010-07-23	"2010-07-23"	"ECOG=0 or ECOG=1"	0	"DM"	"Years"	"2010-02-02T09:16"	11:00:00	"11:00"	NA	""
"405"	"68"	"EFC6546"	"006546-403-106-203"	"403106203"	"ECOG=0 or ECOG=1"	0	"M"	1	"CAUCASIAN/WHITE"	1	"PLACEBO"	"PLACEBO"	0	"PLACEBO"	"PLACEBO"	0	"Y"	"Y"	"Y"	"Y"	"ECOG=1"	1	"ECOG=1"	1	2010-02-04	"2010-02-04"	18:46:00	"18:46"	2010-02-05	"2010-02-05"	2011-01-13	"2011-01-13"	"ECOG=0 or ECOG=1"	0	"DM"	"Years"	"2010-02-04T18:46"	11:00:00	"11:00"	NA	""
"406"	"53"	"EFC6546"	"006546-403-106-401"	"403106401"	"ECOG=0 or ECOG=1"	0	"M"	1	"CAUCASIAN/WHITE"	1	"PLACEBO"	"PLACEBO"	0	"PLACEBO"	"PLACEBO"	0	"Y"	"Y"	"Y"	"Y"	"ECOG=1"	1	"ECOG=1"	1	2009-04-07	"2009-04-07"	17:27:00	"17:27"	2009-04-08	"2009-04-08"	2009-09-22	"2009-09-22"	"ECOG=0 or ECOG=1"	0	"DM"	"Years"	"2009-04-07T17:27"	11:00:00	"11:00"	NA	""
"407"	"54"	"EFC6546"	"006546-403-106-402"	"403106402"	"ECOG=0 or ECOG=1"	0	"M"	1	"CAUCASIAN/WHITE"	1	"PLACEBO"	"PLACEBO"	0	"PLACEBO"	"PLACEBO"	0	"Y"	"Y"	"Y"	"Y"	"ECOG=1"	1	"ECOG=1"	1	2009-08-19	"2009-08-19"	10:44:00	"10:44"	2009-08-19	"2009-08-19"	2010-02-02	"2010-02-02"	"ECOG=0 or ECOG=1"	0	"DM"	"Years"	"2009-08-19T10:44"	13:00:00	"13:00"	NA	""
"408"	"68"	"EFC6546"	"006546-403-106-502"	"403106502"	"ECOG=0 or ECOG=1"	0	"M"	1	"CAUCASIAN/WHITE"	1	"PLACEBO"	"PLACEBO"	0	"PLACEBO"	"PLACEBO"	0	"Y"	"Y"	"Y"	"Y"	"ECOG=1"	1	"ECOG=1"	1	2009-11-12	"2009-11-12"	09:30:00	"09:30"	2009-11-12	"2009-11-12"	2010-04-08	"2010-04-08"	"ECOG=0 or ECOG=1"	0	"DM"	"Years"	"2009-11-12T09:30"	12:00:00	"12:00"	NA	""
"409"	"55"	"EFC6546"	"006546-403-106-602"	"403106602"	"ECOG=0 or ECOG=1"	0	"M"	1	"CAUCASIAN/WHITE"	1	"PLACEBO"	"PLACEBO"	0	"PLACEBO"	"PLACEBO"	0	"Y"	"Y"	"Y"	"Y"	"ECOG=1"	1	"ECOG=1"	1	2009-11-17	"2009-11-17"	10:15:00	"10:15"	2009-11-17	"2009-11-17"	2010-01-19	"2010-01-19"	"ECOG=0 or ECOG=1"	0	"DM"	"Years"	"2009-11-17T10:15"	11:00:00	"11:00"	NA	""
"410"	"72"	"EFC6546"	"006546-403-106-801"	"403106801"	"ECOG=0 or ECOG=1"	0	"M"	1	"CAUCASIAN/WHITE"	1	"PLACEBO"	"PLACEBO"	0	"PLACEBO"	"PLACEBO"	0	"Y"	"Y"	"Y"	"Y"	"ECOG=1"	1	"ECOG=1"	1	2009-04-20	"2009-04-20"	15:49:00	"15:49"	2009-04-21	"2009-04-21"	2010-03-18	"2010-03-18"	"ECOG=0 or ECOG=1"	0	"DM"	"Years"	"2009-04-20T15:49"	12:10:00	"12:10"	NA	""
"411"	"62"	"EFC6546"	"006546-403-106-901"	"403106901"	"ECOG=0 or ECOG=1"	0	"M"	1	"CAUCASIAN/WHITE"	1	"PLACEBO"	"PLACEBO"	0	"PLACEBO"	"PLACEBO"	0	"Y"	"Y"	"Y"	"Y"	"ECOG=1"	1	"ECOG=1"	1	2009-04-27	"2009-04-27"	09:42:00	"09:42"	2009-04-28	"2009-04-28"	2009-12-15	"2009-12-15"	"ECOG=0 or ECOG=1"	0	"DM"	"Years"	"2009-04-27T09:42"	11:45:00	"11:45"	NA	""
"412"	"77"	"EFC6546"	"006546-403-106-902"	"403106902"	"ECOG=0 or ECOG=1"	0	"M"	1	"CAUCASIAN/WHITE"	1	"PLACEBO"	"PLACEBO"	0	"PLACEBO"	"PLACEBO"	0	"Y"	"Y"	"Y"	"Y"	"ECOG=1"	1	"ECOG=1"	1	2009-12-14	"2009-12-14"	11:14:00	"11:14"	2009-12-14	"2009-12-14"	2010-06-09	"2010-06-09"	"ECOG=0 or ECOG=1"	0	"DM"	"Years"	"2009-12-14T11:14"	11:30:00	"11:30"	NA	""
"413"	"56"	"EFC6546"	"006546-403-196-401"	"403196401"	""	NA	"M"	1	"CAUCASIAN/WHITE"	1	"SCRNFAIL"	"SCREEN FAILURE"	NA	"SCRNFAIL"	"SCREEN FAILURE"	NA	"N"	"N"	"N"	"N"	""	NA	""	NA	NA	""	NA	""	NA	""	NA	""	""	NA	"DM"	"Years"	""	NA	""	NA	""
"414"	"80"	"EFC6546"	"006546-410-208-112"	"410208112"	"ECOG=0 or ECOG=1"	0	"M"	1	"CAUCASIAN/WHITE"	1	"PLACEBO"	"PLACEBO"	0	"PLACEBO"	"PLACEBO"	0	"Y"	"Y"	"Y"	"Y"	"ECOG=0"	0	"ECOG=0"	0	2009-06-25	"2009-06-25"	13:00:00	"13:00"	2009-06-25	"2009-06-25"	2009-10-08	"2009-10-08"	"ECOG=0 or ECOG=1"	0	"DM"	"Years"	"2009-06-25T13:00"	15:22:00	"15:22"	NA	""
"415"	"80"	"EFC6546"	"006546-410-208-411"	"410208411"	"ECOG=0 or ECOG=1"	0	"M"	1	"CAUCASIAN/WHITE"	1	"PLACEBO"	"PLACEBO"	0	"PLACEBO"	"PLACEBO"	0	"Y"	"Y"	"Y"	"Y"	"ECOG=0"	0	"ECOG=0"	0	2009-03-04	"2009-03-04"	18:45:00	"18:45"	2009-03-04	"2009-03-04"	2009-09-09	"2009-09-09"	"ECOG=0 or ECOG=1"	0	"DM"	"Years"	"2009-03-04T18:45"	18:30:00	"18:30"	NA	""
"416"	"70"	"EFC6546"	"006546-410-208-611"	"410208611"	"ECOG=0 or ECOG=1"	0	"M"	1	"CAUCASIAN/WHITE"	1	"PLACEBO"	"PLACEBO"	0	"PLACEBO"	"PLACEBO"	0	"Y"	"Y"	"Y"	"Y"	"ECOG=0"	0	"ECOG=0"	0	2009-04-01	"2009-04-01"	15:13:00	"15:13"	2009-04-01	"2009-04-01"	2009-10-07	"2009-10-07"	"ECOG=0 or ECOG=1"	0	"DM"	"Years"	"2009-04-01T15:13"	13:30:00	"13:30"	NA	""
"417"	"74"	"EFC6546"	"006546-410-208-911"	"410208911"	"ECOG=0 or ECOG=1"	0	"M"	1	"ASIAN/ORIENTAL"	3	"PLACEBO"	"PLACEBO"	0	"PLACEBO"	"PLACEBO"	0	"Y"	"Y"	"Y"	"Y"	"ECOG=0"	0	"ECOG=0"	0	2009-06-17	"2009-06-17"	14:04:00	"14:04"	2009-06-17	"2009-06-17"	2009-11-11	"2009-11-11"	"ECOG=0 or ECOG=1"	0	"DM"	"Years"	"2009-06-17T14:04"	16:54:00	"16:54"	NA	""
"418"	"78"	"EFC6546"	"006546-410-298-411"	"410298411"	""	NA	"M"	1	"BLACK"	2	"SCRNFAIL"	"SCREEN FAILURE"	NA	"SCRNFAIL"	"SCREEN FAILURE"	NA	"N"	"N"	"N"	"N"	""	NA	""	NA	NA	""	NA	""	NA	""	NA	""	""	NA	"DM"	"Years"	""	NA	""	NA	""
"419"	"82"	"EFC6546"	"006546-410-498-401"	"410498401"	""	NA	"M"	1	"CAUCASIAN/WHITE"	1	"SCRNFAIL"	"SCREEN FAILURE"	NA	"SCRNFAIL"	"SCREEN FAILURE"	NA	"N"	"N"	"N"	"N"	""	NA	""	NA	NA	""	NA	""	NA	""	NA	""	""	NA	"DM"	"Years"	""	NA	""	NA	""
"420"	"59"	"EFC6546"	"006546-410-498-501"	"410498501"	""	NA	"M"	1	"CAUCASIAN/WHITE"	1	"SCRNFAIL"	"SCREEN FAILURE"	NA	"SCRNFAIL"	"SCREEN FAILURE"	NA	"N"	"N"	"N"	"N"	""	NA	""	NA	NA	""	NA	""	NA	""	NA	""	""	NA	"DM"	"Years"	""	NA	""	NA	""
"421"	"74"	"EFC6546"	"006546-420-198-401"	"420198401"	""	NA	"M"	1	"CAUCASIAN/WHITE"	1	"SCRNFAIL"	"SCREEN FAILURE"	NA	"SCRNFAIL"	"SCREEN FAILURE"	NA	"N"	"N"	"N"	"N"	""	NA	""	NA	NA	""	NA	""	NA	""	NA	""	""	NA	"DM"	"Years"	""	NA	""	NA	""
"422"	"67"	"EFC6546"	"006546-420-208-401"	"420208401"	"ECOG=0 or ECOG=1"	0	"M"	1	"CAUCASIAN/WHITE"	1	"PLACEBO"	"PLACEBO"	0	"PLACEBO"	"PLACEBO"	0	"Y"	"Y"	"Y"	"Y"	"ECOG=1"	1	"ECOG=1"	1	2008-05-20	"2008-05-20"	16:46:00	"16:46"	2008-05-22	"2008-05-22"	2009-05-07	"2009-05-07"	"ECOG=0 or ECOG=1"	0	"DM"	"Years"	"2008-05-20T16:46"	11:34:00	"11:34"	NA	""
"423"	">=85"	"EFC6546"	"006546-420-208-411"	"420208411"	"ECOG=0 or ECOG=1"	0	"M"	1	"CAUCASIAN/WHITE"	1	"PLACEBO"	"PLACEBO"	0	"PLACEBO"	"PLACEBO"	0	"Y"	"Y"	"Y"	"Y"	"ECOG=1"	1	"ECOG=1"	1	2008-10-28	"2008-10-28"	09:58:00	"09:58"	2008-10-28	"2008-10-28"	2009-06-15	"2009-06-15"	"ECOG=0 or ECOG=1"	0	"DM"	"Years"	"2008-10-28T09:58"	10:50:00	"10:50"	NA	""
"424"	"64"	"EFC6546"	"006546-420-208-511"	"420208511"	"ECOG=0 or ECOG=1"	0	"M"	1	"ASIAN/ORIENTAL"	3	"PLACEBO"	"PLACEBO"	0	"PLACEBO"	"PLACEBO"	0	"Y"	"Y"	"Y"	"Y"	"ECOG=1"	1	"ECOG=1"	1	2009-05-06	"2009-05-06"	12:29:00	"12:29"	2009-05-06	"2009-05-06"	2009-12-02	"2009-12-02"	"ECOG=0 or ECOG=1"	0	"DM"	"Years"	"2009-05-06T12:29"	13:20:00	"13:20"	NA	""
"425"	"77"	"EFC6546"	"006546-420-208-601"	"420208601"	"ECOG=0 or ECOG=1"	0	"M"	1	"BLACK"	2	"PLACEBO"	"PLACEBO"	0	"PLACEBO"	"PLACEBO"	0	"Y"	"Y"	"Y"	"Y"	"ECOG=0"	0	"ECOG=0"	0	2008-10-27	"2008-10-27"	15:44:00	"15:44"	2008-11-05	"2008-11-05"	2008-11-05	"2008-11-05"	"ECOG=0 or ECOG=1"	0	"DM"	"Years"	"2008-10-27T15:44"	13:59:00	"13:59"	NA	""
"426"	"67"	"EFC6546"	"006546-420-208-611"	"420208611"	"ECOG=0 or ECOG=1"	0	"M"	1	"CAUCASIAN/WHITE"	1	"PLACEBO"	"PLACEBO"	0	"PLACEBO"	"PLACEBO"	0	"Y"	"Y"	"Y"	"Y"	"ECOG=1"	1	"ECOG=1"	1	2009-10-28	"2009-10-28"	16:24:00	"16:24"	2009-10-29	"2009-10-29"	2009-12-10	"2009-12-10"	"ECOG=0 or ECOG=1"	0	"DM"	"Years"	"2009-10-28T16:24"	11:55:00	"11:55"	NA	""
"427"	"72"	"EFC6546"	"006546-420-298-411"	"420298411"	""	NA	"M"	1	"CAUCASIAN/WHITE"	1	"SCRNFAIL"	"SCREEN FAILURE"	NA	"SCRNFAIL"	"SCREEN FAILURE"	NA	"N"	"N"	"N"	"N"	""	NA	""	NA	NA	""	NA	""	NA	""	NA	""	""	NA	"DM"	"Years"	""	NA	""	NA	""
"428"	"54"	"EFC6546"	"006546-430-008-401"	"430008401"	"ECOG=0 or ECOG=1"	0	"M"	1	"CAUCASIAN/WHITE"	1	"PLACEBO"	"PLACEBO"	0	"PLACEBO"	"PLACEBO"	0	"Y"	"Y"	"Y"	"Y"	"ECOG=1"	1	"ECOG=1"	1	2008-07-21	"2008-07-21"	10:03:00	"10:03"	2008-07-23	"2008-07-23"	2010-06-03	"2010-06-03"	"ECOG=0 or ECOG=1"	0	"DM"	"Years"	"2008-07-21T10:03"	13:24:00	"13:24"	NA	""
"429"	"52"	"EFC6546"	"006546-430-008-601"	"430008601"	"ECOG=2"	1	"M"	1	"CAUCASIAN/WHITE"	1	"PLACEBO"	"PLACEBO"	0	"PLACEBO"	"PLACEBO"	0	"Y"	"Y"	"Y"	"Y"	"ECOG=2"	2	"ECOG=2"	2	2009-02-20	"2009-02-20"	09:58:00	"09:58"	2009-02-23	"2009-02-23"	2009-02-23	"2009-02-23"	"ECOG=2"	1	"DM"	"Years"	"2009-02-20T09:58"	14:10:00	"14:10"	NA	""
"430"	"61"	"EFC6546"	"006546-430-008-701"	"430008701"	"ECOG=0 or ECOG=1"	0	"M"	1	"CAUCASIAN/WHITE"	1	"PLACEBO"	"PLACEBO"	0	"PLACEBO"	"PLACEBO"	0	"Y"	"Y"	"Y"	"Y"	"ECOG=1"	1	"ECOG=1"	1	2009-05-13	"2009-05-13"	09:31:00	"09:31"	2009-05-14	"2009-05-14"	2010-01-27	"2010-01-27"	"ECOG=0 or ECOG=1"	0	"DM"	"Years"	"2009-05-13T09:31"	16:00:00	"16:00"	NA	""
"431"	"79"	"EFC6546"	"006546-430-208-102"	"430208102"	"ECOG=0 or ECOG=1"	0	"M"	1	"CAUCASIAN/WHITE"	1	"PLACEBO"	"PLACEBO"	0	"PLACEBO"	"PLACEBO"	0	"Y"	"Y"	"Y"	"Y"	"ECOG=0"	0	"ECOG=0"	0	2009-11-18	"2009-11-18"	08:45:00	"08:45"	2009-11-18	"2009-11-18"	2010-05-26	"2010-05-26"	"ECOG=0 or ECOG=1"	0	"DM"	"Years"	"2009-11-18T08:45"	12:07:00	"12:07"	NA	""
"432"	"66"	"EFC6546"	"006546-430-208-401"	"430208401"	"ECOG=0 or ECOG=1"	0	"M"	1	"CAUCASIAN/WHITE"	1	"PLACEBO"	"PLACEBO"	0	"PLACEBO"	"PLACEBO"	0	"Y"	"Y"	"Y"	"Y"	"ECOG=0"	0	"ECOG=0"	0	2008-04-15	"2008-04-15"	09:23:00	"09:23"	2008-04-15	"2008-04-15"	2008-10-22	"2008-10-22"	"ECOG=0 or ECOG=1"	0	"DM"	"Years"	"2008-04-15T09:23"	14:48:00	"14:48"	NA	""
"433"	"69"	"EFC6546"	"006546-430-208-411"	"430208411"	"ECOG=0 or ECOG=1"	0	"M"	1	"CAUCASIAN/WHITE"	1	"PLACEBO"	"PLACEBO"	0	"PLACEBO"	"PLACEBO"	0	"Y"	"Y"	"Y"	"Y"	"ECOG=1"	1	"ECOG=1"	1	2008-06-24	"2008-06-24"	11:00:00	"11:00"	2008-06-25	"2008-06-25"	2009-04-15	"2009-04-15"	"ECOG=0 or ECOG=1"	0	"DM"	"Years"	"2008-06-24T11:00"	09:25:00	"09:25"	NA	""
"434"	"71"	"EFC6546"	"006546-430-208-501"	"430208501"	"ECOG=0 or ECOG=1"	0	"M"	1	"BLACK"	2	"PLACEBO"	"PLACEBO"	0	"PLACEBO"	"PLACEBO"	0	"Y"	"Y"	"Y"	"Y"	"ECOG=0"	0	"ECOG=0"	0	2008-04-23	"2008-04-23"	14:32:00	"14:32"	2008-04-23	"2008-04-23"	2008-10-30	"2008-10-30"	"ECOG=0 or ECOG=1"	0	"DM"	"Years"	"2008-04-23T14:32"	15:16:00	"15:16"	NA	""
"435"	"73"	"EFC6546"	"006546-430-208-511"	"430208511"	"ECOG=0 or ECOG=1"	0	"M"	1	"CAUCASIAN/WHITE"	1	"PLACEBO"	"PLACEBO"	0	"PLACEBO"	"PLACEBO"	0	"Y"	"Y"	"Y"	"Y"	"ECOG=1"	1	"ECOG=1"	1	2009-04-07	"2009-04-07"	13:26:00	"13:26"	2009-04-08	"2009-04-08"	2009-07-22	"2009-07-22"	"ECOG=0 or ECOG=1"	0	"DM"	"Years"	"2009-04-07T13:26"	09:30:00	"09:30"	NA	""
"436"	"74"	"EFC6546"	"006546-430-208-611"	"430208611"	"ECOG=0 or ECOG=1"	0	"M"	1	"CAUCASIAN/WHITE"	1	"PLACEBO"	"PLACEBO"	0	"NOTASSGN"	"Not Assigned"	-1	"Y"	"N"	"N"	"Y"	"ECOG=0"	0	"ECOG=0"	0	2010-01-27	"2010-01-27"	11:26:00	"11:26"	NA	""	NA	""	"ECOG=0 or ECOG=1"	0	"DM"	"Years"	"2010-01-27T11:26"	NA	""	NA	""
"437"	"76"	"EFC6546"	"006546-430-208-701"	"430208701"	"ECOG=0 or ECOG=1"	0	"M"	1	"CAUCASIAN/WHITE"	1	"PLACEBO"	"PLACEBO"	0	"PLACEBO"	"PLACEBO"	0	"Y"	"Y"	"Y"	"Y"	"ECOG=1"	1	"ECOG=1"	1	2008-09-08	"2008-09-08"	09:59:00	"09:59"	2008-09-08	"2008-09-08"	2009-03-17	"2009-03-17"	"ECOG=0 or ECOG=1"	0	"DM"	"Years"	"2008-09-08T09:59"	11:05:00	"11:05"	NA	""
"438"	"73"	"EFC6546"	"006546-430-208-801"	"430208801"	"ECOG=0 or ECOG=1"	0	"M"	1	"CAUCASIAN/WHITE"	1	"PLACEBO"	"PLACEBO"	0	"PLACEBO"	"PLACEBO"	0	"Y"	"Y"	"Y"	"Y"	"ECOG=0"	0	"ECOG=0"	0	2009-04-29	"2009-04-29"	12:14:00	"12:14"	2009-04-29	"2009-04-29"	2009-10-21	"2009-10-21"	"ECOG=0 or ECOG=1"	0	"DM"	"Years"	"2009-04-29T12:14"	13:45:00	"13:45"	NA	""
"439"	"55"	"EFC6546"	"006546-430-298-401"	"430298401"	""	NA	"M"	1	"CAUCASIAN/WHITE"	1	"SCRNFAIL"	"SCREEN FAILURE"	NA	"SCRNFAIL"	"SCREEN FAILURE"	NA	"N"	"N"	"N"	"N"	""	NA	""	NA	NA	""	NA	""	NA	""	NA	""	""	NA	"DM"	"Years"	""	NA	""	NA	""
"440"	"81"	"EFC6546"	"006546-430-298-501"	"430298501"	""	NA	"M"	1	"CAUCASIAN/WHITE"	1	"SCRNFAIL"	"SCREEN FAILURE"	NA	"SCRNFAIL"	"SCREEN FAILURE"	NA	"N"	"N"	"N"	"N"	""	NA	""	NA	NA	""	NA	""	NA	""	NA	""	""	NA	"DM"	"Years"	""	NA	""	NA	""
"441"	"61"	"EFC6546"	"006546-430-498-401"	"430498401"	""	NA	"M"	1	"CAUCASIAN/WHITE"	1	"SCRNFAIL"	"SCREEN FAILURE"	NA	"SCRNFAIL"	"SCREEN FAILURE"	NA	"N"	"N"	"N"	"N"	""	NA	""	NA	NA	""	NA	""	NA	""	NA	""	""	NA	"DM"	"Years"	""	NA	""	NA	""
"442"	"80"	"EFC6546"	"006546-430-608-411"	"430608411"	"ECOG=0 or ECOG=1"	0	"M"	1	"CAUCASIAN/WHITE"	1	"PLACEBO"	"PLACEBO"	0	"PLACEBO"	"PLACEBO"	0	"Y"	"Y"	"Y"	"Y"	"ECOG=1"	1	"ECOG=1"	1	2009-10-21	"2009-10-21"	14:51:00	"14:51"	2009-10-22	"2009-10-22"	2010-09-09	"2010-09-09"	"ECOG=0 or ECOG=1"	0	"DM"	"Years"	"2009-10-21T14:51"	12:39:00	"12:39"	NA	""
"443"	"68"	"EFC6546"	"006546-433-006-601"	"433006601"	"ECOG=0 or ECOG=1"	0	"M"	1	"CAUCASIAN/WHITE"	1	"PLACEBO"	"PLACEBO"	0	"PLACEBO"	"PLACEBO"	0	"Y"	"Y"	"Y"	"Y"	"ECOG=0"	0	"ECOG=0"	0	2008-05-15	"2008-05-15"	16:13:00	"16:13"	2008-05-16	"2008-05-16"	2008-07-01	"2008-07-01"	"ECOG=0 or ECOG=1"	0	"DM"	"Years"	"2008-05-15T16:13"	12:15:00	"12:15"	NA	""
"444"	"66"	"EFC6546"	"006546-433-006-701"	"433006701"	"ECOG=0 or ECOG=1"	0	"M"	1	"CAUCASIAN/WHITE"	1	"PLACEBO"	"PLACEBO"	0	"PLACEBO"	"PLACEBO"	0	"Y"	"Y"	"Y"	"Y"	"ECOG=0"	0	"ECOG=0"	0	2008-10-10	"2008-10-10"	10:23:00	"10:23"	2008-10-10	"2008-10-10"	2008-10-10	"2008-10-10"	"ECOG=0 or ECOG=1"	0	"DM"	"Years"	"2008-10-10T10:23"	11:35:00	"11:35"	NA	""
"445"	"61"	"EFC6546"	"006546-438-003-601"	"438003601"	"ECOG=0 or ECOG=1"	0	"M"	1	"CAUCASIAN/WHITE"	1	"PLACEBO"	"PLACEBO"	0	"PLACEBO"	"PLACEBO"	0	"Y"	"Y"	"Y"	"Y"	"ECOG=0"	0	"ECOG=0"	0	2009-11-02	"2009-11-02"	10:41:00	"10:41"	2009-11-02	"2009-11-02"	2010-06-07	"2010-06-07"	"ECOG=0 or ECOG=1"	0	"DM"	"Years"	"2009-11-02T10:41"	12:30:00	"12:30"	NA	""
"446"	"73"	"EFC6546"	"006546-438-003-701"	"438003701"	"ECOG=0 or ECOG=1"	0	"M"	1	"CAUCASIAN/WHITE"	1	"PLACEBO"	"PLACEBO"	0	"PLACEBO"	"PLACEBO"	0	"Y"	"Y"	"Y"	"Y"	"ECOG=0"	0	"ECOG=0"	0	2009-11-06	"2009-11-06"	13:41:00	"13:41"	2009-11-09	"2009-11-09"	2010-01-11	"2010-01-11"	"ECOG=0 or ECOG=1"	0	"DM"	"Years"	"2009-11-06T13:41"	09:00:00	"09:00"	NA	""
"447"	"65"	"EFC6546"	"006546-438-003-901"	"438003901"	"ECOG=0 or ECOG=1"	0	"M"	1	"CAUCASIAN/WHITE"	1	"PLACEBO"	"PLACEBO"	0	"PLACEBO"	"PLACEBO"	0	"Y"	"Y"	"Y"	"Y"	"ECOG=0"	0	"ECOG=0"	0	2009-11-10	"2009-11-10"	07:32:00	"07:32"	2009-11-10	"2009-11-10"	2010-06-29	"2010-06-29"	"ECOG=0 or ECOG=1"	0	"DM"	"Years"	"2009-11-10T07:32"	10:15:00	"10:15"	NA	""
"448"	"57"	"EFC6546"	"006546-438-093-401"	"438093401"	""	NA	"M"	1	"CAUCASIAN/WHITE"	1	"SCRNFAIL"	"SCREEN FAILURE"	NA	"SCRNFAIL"	"SCREEN FAILURE"	NA	"N"	"N"	"N"	"N"	""	NA	""	NA	NA	""	NA	""	NA	""	NA	""	""	NA	"DM"	"Years"	""	NA	""	NA	""
"449"	"76"	"EFC6546"	"006546-438-093-501"	"438093501"	""	NA	"M"	1	"CAUCASIAN/WHITE"	1	"SCRNFAIL"	"SCREEN FAILURE"	NA	"SCRNFAIL"	"SCREEN FAILURE"	NA	"N"	"N"	"N"	"N"	""	NA	""	NA	NA	""	NA	""	NA	""	NA	""	""	NA	"DM"	"Years"	""	NA	""	NA	""
"450"	"57"	"EFC6546"	"006546-440-208-511"	"440208511"	"ECOG=0 or ECOG=1"	0	"M"	1	"CAUCASIAN/WHITE"	1	"PLACEBO"	"PLACEBO"	0	"PLACEBO"	"PLACEBO"	0	"Y"	"Y"	"Y"	"Y"	"ECOG=0"	0	"ECOG=0"	0	2009-09-29	"2009-09-29"	12:04:00	"12:04"	2009-10-01	"2009-10-01"	2010-05-27	"2010-05-27"	"ECOG=0 or ECOG=1"	0	"DM"	"Years"	"2009-09-29T12:04"	08:45:00	"08:45"	NA	""
"451"	"61"	"EFC6546"	"006546-440-408-401"	"440408401"	"ECOG=0 or ECOG=1"	0	"M"	1	"BLACK"	2	"PLACEBO"	"PLACEBO"	0	"PLACEBO"	"PLACEBO"	0	"Y"	"Y"	"Y"	"Y"	"ECOG=0"	0	"ECOG=0"	0	2008-03-21	"2008-03-21"	11:08:00	"11:08"	2008-03-21	"2008-03-21"	2008-08-22	"2008-08-22"	"ECOG=0 or ECOG=1"	0	"DM"	"Years"	"2008-03-21T11:08"	12:19:00	"12:19"	NA	""
"452"	"66"	"EFC6546"	"006546-440-498-401"	"440498401"	""	NA	"M"	1	"BLACK"	2	"SCRNFAIL"	"SCREEN FAILURE"	NA	"SCRNFAIL"	"SCREEN FAILURE"	NA	"N"	"N"	"N"	"N"	""	NA	""	NA	NA	""	NA	""	NA	""	NA	""	""	NA	"DM"	"Years"	""	NA	""	NA	""
"453"	"70"	"EFC6546"	"006546-440-498-501"	"440498501"	""	NA	"M"	1	"CAUCASIAN/WHITE"	1	"SCRNFAIL"	"SCREEN FAILURE"	NA	"SCRNFAIL"	"SCREEN FAILURE"	NA	"N"	"N"	"N"	"N"	""	NA	""	NA	NA	""	NA	""	NA	""	NA	""	""	NA	"DM"	"Years"	""	NA	""	NA	""
"454"	"82"	"EFC6546"	"006546-440-908-401"	"440908401"	"ECOG=0 or ECOG=1"	0	"M"	1	"CAUCASIAN/WHITE"	1	"PLACEBO"	"PLACEBO"	0	"PLACEBO"	"PLACEBO"	0	"Y"	"Y"	"Y"	"Y"	"ECOG=0"	0	"ECOG=1"	1	2008-04-14	"2008-04-14"	10:51:00	"10:51"	2008-04-14	"2008-04-14"	2008-05-05	"2008-05-05"	"ECOG=0 or ECOG=1"	0	"DM"	"Years"	"2008-04-14T10:51"	15:05:00	"15:05"	NA	""
"455"	"52"	"EFC6546"	"006546-440-998-401"	"440998401"	""	NA	"M"	1	"CAUCASIAN/WHITE"	1	"SCRNFAIL"	"SCREEN FAILURE"	NA	"SCRNFAIL"	"SCREEN FAILURE"	NA	"N"	"N"	"N"	"N"	""	NA	""	NA	NA	""	NA	""	NA	""	NA	""	""	NA	"DM"	"Years"	""	NA	""	NA	""
"456"	"58"	"EFC6546"	"006546-440-998-501"	"440998501"	""	NA	"M"	1	"CAUCASIAN/WHITE"	1	"SCRNFAIL"	"SCREEN FAILURE"	NA	"SCRNFAIL"	"SCREEN FAILURE"	NA	"N"	"N"	"N"	"N"	""	NA	""	NA	NA	""	NA	""	NA	""	NA	""	""	NA	"DM"	"Years"	""	NA	""	NA	""
"457"	"59"	"EFC6546"	"006546-443-006-501"	"443006501"	"ECOG=0 or ECOG=1"	0	"M"	1	"CAUCASIAN/WHITE"	1	"PLACEBO"	"PLACEBO"	0	"PLACEBO"	"PLACEBO"	0	"Y"	"Y"	"Y"	"Y"	"ECOG=0"	0	"ECOG=0"	0	2008-08-26	"2008-08-26"	13:05:00	"13:05"	2008-08-26	"2008-08-26"	2008-10-07	"2008-10-07"	"ECOG=0 or ECOG=1"	0	"DM"	"Years"	"2008-08-26T13:05"	13:10:00	"13:10"	NA	""
"458"	"80"	"EFC6546"	"006546-448-003-501"	"448003501"	"ECOG=0 or ECOG=1"	0	"M"	1	"CAUCASIAN/WHITE"	1	"PLACEBO"	"PLACEBO"	0	"PLACEBO"	"PLACEBO"	0	"Y"	"Y"	"Y"	"Y"	"ECOG=0"	0	"ECOG=0"	0	2008-04-22	"2008-04-22"	08:43:00	"08:43"	2008-04-22	"2008-04-22"	2008-06-17	"2008-06-17"	"ECOG=0 or ECOG=1"	0	"DM"	"Years"	"2008-04-22T08:43"	09:00:00	"09:00"	NA	""
"459"	"75"	"EFC6546"	"006546-450-008-501"	"450008501"	"ECOG=0 or ECOG=1"	0	"M"	1	"BLACK"	2	"PLACEBO"	"PLACEBO"	0	"PLACEBO"	"PLACEBO"	0	"Y"	"Y"	"Y"	"Y"	"ECOG=1"	1	"ECOG=1"	1	2009-02-04	"2009-02-04"	13:50:00	"13:50"	2009-02-04	"2009-02-04"	2009-07-01	"2009-07-01"	"ECOG=0 or ECOG=1"	0	"DM"	"Years"	"2009-02-04T13:50"	14:50:00	"14:50"	NA	""
"460"	"80"	"EFC6546"	"006546-450-098-401"	"450098401"	""	NA	"M"	1	"CAUCASIAN/WHITE"	1	"SCRNFAIL"	"SCREEN FAILURE"	NA	"SCRNFAIL"	"SCREEN FAILURE"	NA	"N"	"N"	"N"	"N"	""	NA	""	NA	NA	""	NA	""	NA	""	NA	""	""	NA	"DM"	"Years"	""	NA	""	NA	""
"461"	"80"	"EFC6546"	"006546-460-098-411"	"460098411"	""	NA	"M"	1	"OTHER"	99	"SCRNFAIL"	"SCREEN FAILURE"	NA	"SCRNFAIL"	"SCREEN FAILURE"	NA	"N"	"N"	"N"	"N"	""	NA	""	NA	NA	""	NA	""	NA	""	NA	""	""	NA	"DM"	"Years"	""	NA	""	NA	""
"462"	"79"	"EFC6546"	"006546-460-808-501"	"460808501"	"ECOG=0 or ECOG=1"	0	"M"	1	"CAUCASIAN/WHITE"	1	"PLACEBO"	"PLACEBO"	0	"PLACEBO"	"PLACEBO"	0	"Y"	"Y"	"Y"	"Y"	"ECOG=1"	1	"ECOG=1"	1	2008-11-05	"2008-11-05"	16:17:00	"16:17"	2008-11-06	"2008-11-06"	2009-04-14	"2009-04-14"	"ECOG=0 or ECOG=1"	0	"DM"	"Years"	"2008-11-05T16:17"	14:35:00	"14:35"	NA	""
"463"	"57"	"EFC6546"	"006546-460-808-701"	"460808701"	"ECOG=0 or ECOG=1"	0	"M"	1	"CAUCASIAN/WHITE"	1	"PLACEBO"	"PLACEBO"	0	"PLACEBO"	"PLACEBO"	0	"Y"	"Y"	"Y"	"Y"	"ECOG=0"	0	"ECOG=0"	0	2009-01-21	"2009-01-21"	16:31:00	"16:31"	2009-01-22	"2009-01-22"	2009-09-17	"2009-09-17"	"ECOG=0 or ECOG=1"	0	"DM"	"Years"	"2009-01-21T16:31"	14:33:00	"14:33"	NA	""
"464"	"69"	"EFC6546"	"006546-460-808-801"	"460808801"	"ECOG=0 or ECOG=1"	0	"M"	1	"CAUCASIAN/WHITE"	1	"PLACEBO"	"PLACEBO"	0	"PLACEBO"	"PLACEBO"	0	"Y"	"Y"	"Y"	"Y"	"ECOG=0"	0	"ECOG=0"	0	2009-03-26	"2009-03-26"	11:43:00	"11:43"	2009-03-26	"2009-03-26"	2009-06-18	"2009-06-18"	"ECOG=0 or ECOG=1"	0	"DM"	"Years"	"2009-03-26T11:43"	13:15:00	"13:15"	NA	""
"465"	"69"	"EFC6546"	"006546-460-898-401"	"460898401"	""	NA	"M"	1	"CAUCASIAN/WHITE"	1	"SCRNFAIL"	"SCREEN FAILURE"	NA	"SCRNFAIL"	"SCREEN FAILURE"	NA	"N"	"N"	"N"	"N"	""	NA	""	NA	NA	""	NA	""	NA	""	NA	""	""	NA	"DM"	"Years"	""	NA	""	NA	""
"466"	"61"	"EFC6546"	"006546-460-898-501"	"460898501"	""	NA	"M"	1	"BLACK"	2	"SCRNFAIL"	"SCREEN FAILURE"	NA	"SCRNFAIL"	"SCREEN FAILURE"	NA	"N"	"N"	"N"	"N"	""	NA	""	NA	NA	""	NA	""	NA	""	NA	""	""	NA	"DM"	"Years"	""	NA	""	NA	""
"467"	"71"	"EFC6546"	"006546-463-006-102"	"463006102"	"ECOG=2"	1	"M"	1	"CAUCASIAN/WHITE"	1	"PLACEBO"	"PLACEBO"	0	"PLACEBO"	"PLACEBO"	0	"Y"	"Y"	"Y"	"Y"	"ECOG=2"	2	"ECOG=2"	2	2008-07-09	"2008-07-09"	09:12:00	"09:12"	2008-07-09	"2008-07-09"	2008-09-10	"2008-09-10"	"ECOG=2"	1	"DM"	"Years"	"2008-07-09T09:12"	10:00:00	"10:00"	NA	""
"468"	"51"	"EFC6546"	"006546-463-006-202"	"463006202"	"ECOG=2"	1	"M"	1	"CAUCASIAN/WHITE"	1	"PLACEBO"	"PLACEBO"	0	"PLACEBO"	"PLACEBO"	0	"Y"	"Y"	"Y"	"Y"	"ECOG=2"	2	"ECOG=2"	2	2009-04-08	"2009-04-08"	12:02:00	"12:02"	2009-04-08	"2009-04-08"	2010-02-03	"2010-02-03"	"ECOG=2"	1	"DM"	"Years"	"2009-04-08T12:02"	14:35:00	"14:35"	NA	""
"469"	"61"	"EFC6546"	"006546-463-006-302"	"463006302"	"ECOG=2"	1	"M"	1	"CAUCASIAN/WHITE"	1	"PLACEBO"	"PLACEBO"	0	"PLACEBO"	"PLACEBO"	0	"Y"	"Y"	"Y"	"Y"	"ECOG=2"	2	"ECOG=2"	2	2009-07-01	"2009-07-01"	16:36:00	"16:36"	2009-07-01	"2009-07-01"	2009-09-25	"2009-09-25"	"ECOG=2"	1	"DM"	"Years"	"2009-07-01T16:36"	16:50:00	"16:50"	NA	""
"470"	"68"	"EFC6546"	"006546-463-006-401"	"463006401"	"ECOG=2"	1	"M"	1	"CAUCASIAN/WHITE"	1	"PLACEBO"	"PLACEBO"	0	"PLACEBO"	"PLACEBO"	0	"Y"	"Y"	"Y"	"Y"	"ECOG=2"	2	"ECOG=2"	2	2008-02-29	"2008-02-29"	16:03:00	"16:03"	2008-03-03	"2008-03-03"	2008-12-24	"2008-12-24"	"ECOG=2"	1	"DM"	"Years"	"2008-02-29T16:03"	16:10:00	"16:10"	NA	""
"471"	"61"	"EFC6546"	"006546-463-006-501"	"463006501"	"ECOG=2"	1	"M"	1	"CAUCASIAN/WHITE"	1	"PLACEBO"	"PLACEBO"	0	"PLACEBO"	"PLACEBO"	0	"Y"	"Y"	"Y"	"Y"	"ECOG=2"	2	"ECOG=2"	2	2008-03-07	"2008-03-07"	09:35:00	"09:35"	2008-03-07	"2008-03-07"	2008-03-28	"2008-03-28"	"ECOG=2"	1	"DM"	"Years"	"2008-03-07T09:35"	14:00:00	"14:00"	NA	""
"472"	"69"	"EFC6546"	"006546-463-006-801"	"463006801"	"ECOG=2"	1	"M"	1	"CAUCASIAN/WHITE"	1	"PLACEBO"	"PLACEBO"	0	"PLACEBO"	"PLACEBO"	0	"Y"	"Y"	"Y"	"Y"	"ECOG=2"	2	"ECOG=2"	2	2008-04-16	"2008-04-16"	10:16:00	"10:16"	2008-04-16	"2008-04-16"	2009-07-01	"2009-07-01"	"ECOG=2"	1	"DM"	"Years"	"2008-04-16T10:16"	11:00:00	"11:00"	16:27:00	"16:27"
"473"	"57"	"EFC6546"	"006546-463-006-901"	"463006901"	"ECOG=0 or ECOG=1"	0	"M"	1	"CAUCASIAN/WHITE"	1	"PLACEBO"	"PLACEBO"	0	"PLACEBO"	"PLACEBO"	0	"Y"	"Y"	"Y"	"Y"	"ECOG=1"	1	"ECOG=1"	1	2008-05-08	"2008-05-08"	09:15:00	"09:15"	2008-05-08	"2008-05-08"	2008-08-20	"2008-08-20"	"ECOG=0 or ECOG=1"	0	"DM"	"Years"	"2008-05-08T09:15"	10:00:00	"10:00"	NA	""
"474"	"79"	"EFC6546"	"006546-468-003-401"	"468003401"	"ECOG=0 or ECOG=1"	0	"M"	1	"CAUCASIAN/WHITE"	1	"PLACEBO"	"PLACEBO"	0	"PLACEBO"	"PLACEBO"	0	"Y"	"Y"	"Y"	"Y"	"ECOG=1"	1	"ECOG=1"	1	2009-05-04	"2009-05-04"	12:04:00	"12:04"	2009-05-05	"2009-05-05"	2009-06-16	"2009-06-16"	"ECOG=0 or ECOG=1"	0	"DM"	"Years"	"2009-05-04T12:04"	09:00:00	"09:00"	NA	""
"475"	"78"	"EFC6546"	"006546-468-003-701"	"468003701"	"ECOG=0 or ECOG=1"	0	"M"	1	"CAUCASIAN/WHITE"	1	"PLACEBO"	"PLACEBO"	0	"PLACEBO"	"PLACEBO"	0	"Y"	"Y"	"Y"	"Y"	"ECOG=1"	1	"ECOG=1"	1	2009-10-06	"2009-10-06"	11:53:00	"11:53"	2009-10-06	"2009-10-06"	2009-12-08	"2009-12-08"	"ECOG=0 or ECOG=1"	0	"DM"	"Years"	"2009-10-06T11:53"	13:50:00	"13:50"	NA	""
"476"	"61"	"EFC6546"	"006546-468-093-401"	"468093401"	""	NA	"M"	1	"CAUCASIAN/WHITE"	1	"SCRNFAIL"	"SCREEN FAILURE"	NA	"SCRNFAIL"	"SCREEN FAILURE"	NA	"N"	"N"	"N"	"N"	""	NA	""	NA	NA	""	NA	""	NA	""	NA	""	""	NA	"DM"	"Years"	""	NA	""	NA	""
"477"	"76"	"EFC6546"	"006546-468-093-501"	"468093501"	""	NA	"M"	1	"CAUCASIAN/WHITE"	1	"SCRNFAIL"	"SCREEN FAILURE"	NA	"SCRNFAIL"	"SCREEN FAILURE"	NA	"N"	"N"	"N"	"N"	""	NA	""	NA	NA	""	NA	""	NA	""	NA	""	""	NA	"DM"	"Years"	""	NA	""	NA	""
"478"	"74"	"EFC6546"	"006546-468-093-601"	"468093601"	""	NA	"M"	1	"CAUCASIAN/WHITE"	1	"SCRNFAIL"	"SCREEN FAILURE"	NA	"SCRNFAIL"	"SCREEN FAILURE"	NA	"N"	"N"	"N"	"N"	""	NA	""	NA	NA	""	NA	""	NA	""	NA	""	""	NA	"DM"	"Years"	""	NA	""	NA	""
"479"	"74"	"EFC6546"	"006546-470-008-002"	"470008002"	"ECOG=0 or ECOG=1"	0	"M"	1	"CAUCASIAN/WHITE"	1	"PLACEBO"	"PLACEBO"	0	"PLACEBO"	"PLACEBO"	0	"Y"	"Y"	"Y"	"Y"	"ECOG=1"	1	"ECOG=1"	1	2009-08-05	"2009-08-05"	11:16:00	"11:16"	2009-08-05	"2009-08-05"	2010-02-09	"2010-02-09"	"ECOG=0 or ECOG=1"	0	"DM"	"Years"	"2009-08-05T11:16"	12:00:00	"12:00"	NA	""
"480"	"76"	"EFC6546"	"006546-470-008-401"	"470008401"	"ECOG=0 or ECOG=1"	0	"M"	1	"CAUCASIAN/WHITE"	1	"PLACEBO"	"PLACEBO"	0	"PLACEBO"	"PLACEBO"	0	"Y"	"Y"	"Y"	"Y"	"ECOG=1"	1	"ECOG=1"	1	2007-11-19	"2007-11-19"	10:41:00	"10:41"	2007-11-19	"2007-11-19"	2008-06-26	"2008-06-26"	"ECOG=0 or ECOG=1"	0	"DM"	"Years"	"2007-11-19T10:41"	13:10:00	"13:10"	NA	""
"481"	"75"	"EFC6546"	"006546-470-008-411"	"470008411"	"ECOG=0 or ECOG=1"	0	"M"	1	"CAUCASIAN/WHITE"	1	"PLACEBO"	"PLACEBO"	0	"PLACEBO"	"PLACEBO"	0	"Y"	"Y"	"Y"	"Y"	"ECOG=1"	1	"ECOG=1"	1	2007-12-06	"2007-12-06"	16:31:00	"16:31"	2007-12-07	"2007-12-07"	2009-03-24	"2009-03-24"	"ECOG=0 or ECOG=1"	0	"DM"	"Years"	"2007-12-06T16:31"	09:55:00	"09:55"	11:25:00	"11:25"
"482"	"68"	"EFC6546"	"006546-470-008-611"	"470008611"	"ECOG=0 or ECOG=1"	0	"M"	1	"CAUCASIAN/WHITE"	1	"PLACEBO"	"PLACEBO"	0	"PLACEBO"	"PLACEBO"	0	"Y"	"Y"	"Y"	"Y"	"ECOG=1"	1	"ECOG=1"	1	2008-03-27	"2008-03-27"	09:12:00	"09:12"	2008-03-27	"2008-03-27"	2010-12-16	"2010-12-16"	"ECOG=0 or ECOG=1"	0	"DM"	"Years"	"2008-03-27T09:12"	13:45:00	"13:45"	15:22:00	"15:22"
"483"	"55"	"EFC6546"	"006546-470-008-711"	"470008711"	"ECOG=0 or ECOG=1"	0	"M"	1	"CAUCASIAN/WHITE"	1	"PLACEBO"	"PLACEBO"	0	"PLACEBO"	"PLACEBO"	0	"Y"	"Y"	"Y"	"Y"	"ECOG=1"	1	"ECOG=1"	1	2008-06-17	"2008-06-17"	10:11:00	"10:11"	2008-06-17	"2008-06-17"	2008-06-17	"2008-06-17"	"ECOG=0 or ECOG=1"	0	"DM"	"Years"	"2008-06-17T10:11"	10:40:00	"10:40"	NA	""
"484"	"53"	"EFC6546"	"006546-470-008-801"	"470008801"	"ECOG=0 or ECOG=1"	0	"M"	1	"CAUCASIAN/WHITE"	1	"PLACEBO"	"PLACEBO"	0	"PLACEBO"	"PLACEBO"	0	"Y"	"Y"	"Y"	"Y"	"ECOG=0"	0	"ECOG=0"	0	2009-05-21	"2009-05-21"	10:08:00	"10:08"	2009-05-21	"2009-05-21"	2010-01-07	"2010-01-07"	"ECOG=0 or ECOG=1"	0	"DM"	"Years"	"2009-05-21T10:08"	10:40:00	"10:40"	NA	""
"485"	"61"	"EFC6546"	"006546-470-008-811"	"470008811"	"ECOG=0 or ECOG=1"	0	"M"	1	"CAUCASIAN/WHITE"	1	"PLACEBO"	"PLACEBO"	0	"PLACEBO"	"PLACEBO"	0	"Y"	"Y"	"Y"	"Y"	"ECOG=0"	0	"ECOG=0"	0	2009-01-13	"2009-01-13"	09:48:00	"09:48"	2009-01-13	"2009-01-13"	2009-05-06	"2009-05-06"	"ECOG=0 or ECOG=1"	0	"DM"	"Years"	"2009-01-13T09:48"	11:00:00	"11:00"	NA	""
"486"	"62"	"EFC6546"	"006546-470-008-901"	"470008901"	"ECOG=0 or ECOG=1"	0	"M"	1	"CAUCASIAN/WHITE"	1	"PLACEBO"	"PLACEBO"	0	"PLACEBO"	"PLACEBO"	0	"Y"	"Y"	"Y"	"Y"	"ECOG=0"	0	"ECOG=0"	0	2009-07-21	"2009-07-21"	11:07:00	"11:07"	2009-07-21	"2009-07-21"	2010-01-26	"2010-01-26"	"ECOG=0 or ECOG=1"	0	"DM"	"Years"	"2009-07-21T11:07"	11:45:00	"11:45"	NA	""
"487"	"81"	"EFC6546"	"006546-470-098-401"	"470098401"	""	NA	"M"	1	"CAUCASIAN/WHITE"	1	"SCRNFAIL"	"SCREEN FAILURE"	NA	"SCRNFAIL"	"SCREEN FAILURE"	NA	"N"	"N"	"N"	"N"	""	NA	""	NA	NA	""	NA	""	NA	""	NA	""	""	NA	"DM"	"Years"	""	NA	""	NA	""
"488"	"58"	"EFC6546"	"006546-470-098-411"	"470098411"	""	NA	"M"	1	"CAUCASIAN/WHITE"	1	"SCRNFAIL"	"SCREEN FAILURE"	NA	"SCRNFAIL"	"SCREEN FAILURE"	NA	"N"	"N"	"N"	"N"	""	NA	""	NA	NA	""	NA	""	NA	""	NA	""	""	NA	"DM"	"Years"	""	NA	""	NA	""
"489"	"52"	"EFC6546"	"006546-470-098-501"	"470098501"	""	NA	"M"	1	"CAUCASIAN/WHITE"	1	"SCRNFAIL"	"SCREEN FAILURE"	NA	"SCRNFAIL"	"SCREEN FAILURE"	NA	"N"	"N"	"N"	"N"	""	NA	""	NA	NA	""	NA	""	NA	""	NA	""	""	NA	"DM"	"Years"	""	NA	""	NA	""
"490"	"71"	"EFC6546"	"006546-470-098-601"	"470098601"	""	NA	"M"	1	"CAUCASIAN/WHITE"	1	"SCRNFAIL"	"SCREEN FAILURE"	NA	"SCRNFAIL"	"SCREEN FAILURE"	NA	"N"	"N"	"N"	"N"	""	NA	""	NA	NA	""	NA	""	NA	""	NA	""	""	NA	"DM"	"Years"	""	NA	""	NA	""
"491"	"76"	"EFC6546"	"006546-470-098-701"	"470098701"	""	NA	"M"	1	"CAUCASIAN/WHITE"	1	"SCRNFAIL"	"SCREEN FAILURE"	NA	"SCRNFAIL"	"SCREEN FAILURE"	NA	"N"	"N"	"N"	"N"	""	NA	""	NA	NA	""	NA	""	NA	""	NA	""	""	NA	"DM"	"Years"	""	NA	""	NA	""
"492"	"69"	"EFC6546"	"006546-470-098-801"	"470098801"	""	NA	"M"	1	"CAUCASIAN/WHITE"	1	"SCRNFAIL"	"SCREEN FAILURE"	NA	"SCRNFAIL"	"SCREEN FAILURE"	NA	"N"	"N"	"N"	"N"	""	NA	""	NA	NA	""	NA	""	NA	""	NA	""	""	NA	"DM"	"Years"	""	NA	""	NA	""
"493"	"84"	"EFC6546"	"006546-470-098-901"	"470098901"	""	NA	"M"	1	"CAUCASIAN/WHITE"	1	"SCRNFAIL"	"SCREEN FAILURE"	NA	"SCRNFAIL"	"SCREEN FAILURE"	NA	"N"	"N"	"N"	"N"	""	NA	""	NA	NA	""	NA	""	NA	""	NA	""	""	NA	"DM"	"Years"	""	NA	""	NA	""
"494"	"63"	"EFC6546"	"006546-470-208-401"	"470208401"	"ECOG=0 or ECOG=1"	0	"M"	1	"CAUCASIAN/WHITE"	1	"PLACEBO"	"PLACEBO"	0	"PLACEBO"	"PLACEBO"	0	"Y"	"Y"	"Y"	"Y"	"ECOG=1"	1	"ECOG=1"	1	2008-08-04	"2008-08-04"	10:55:00	"10:55"	2008-08-05	"2008-08-05"	2008-08-28	"2008-08-28"	"ECOG=0 or ECOG=1"	0	"DM"	"Years"	"2008-08-04T10:55"	12:15:00	"12:15"	NA	""
"495"	"64"	"EFC6546"	"006546-470-208-411"	"470208411"	"ECOG=0 or ECOG=1"	0	"M"	1	"CAUCASIAN/WHITE"	1	"PLACEBO"	"PLACEBO"	0	"PLACEBO"	"PLACEBO"	0	"Y"	"Y"	"Y"	"Y"	"ECOG=1"	1	"ECOG=1"	1	2008-09-24	"2008-09-24"	15:17:00	"15:17"	2008-09-25	"2008-09-25"	2008-11-26	"2008-11-26"	"ECOG=0 or ECOG=1"	0	"DM"	"Years"	"2008-09-24T15:17"	NA	"XX:XX"	NA	""
"496"	"80"	"EFC6546"	"006546-470-208-501"	"470208501"	"ECOG=0 or ECOG=1"	0	"M"	1	"CAUCASIAN/WHITE"	1	"PLACEBO"	"PLACEBO"	0	"PLACEBO"	"PLACEBO"	0	"Y"	"Y"	"Y"	"Y"	"ECOG=0"	0	"ECOG=0"	0	2008-01-28	"2008-01-28"	12:44:00	"12:44"	2008-01-30	"2008-01-30"	2009-04-30	"2009-04-30"	"ECOG=0 or ECOG=1"	0	"DM"	"Years"	"2008-01-28T12:44"	11:13:00	"11:13"	NA	""
"497"	"64"	"EFC6546"	"006546-470-208-511"	"470208511"	"ECOG=0 or ECOG=1"	0	"M"	1	"CAUCASIAN/WHITE"	1	"PLACEBO"	"PLACEBO"	0	"PLACEBO"	"PLACEBO"	0	"Y"	"Y"	"Y"	"Y"	"ECOG=0"	0	"ECOG=0"	0	2008-10-01	"2008-10-01"	11:03:00	"11:03"	2008-10-02	"2008-10-02"	2009-05-28	"2009-05-28"	"ECOG=0 or ECOG=1"	0	"DM"	"Years"	"2008-10-01T11:03"	12:15:00	"12:15"	NA	""
"498"	"61"	"EFC6546"	"006546-470-208-601"	"470208601"	"ECOG=0 or ECOG=1"	0	"M"	1	"CAUCASIAN/WHITE"	1	"PLACEBO"	"PLACEBO"	0	"PLACEBO"	"PLACEBO"	0	"Y"	"Y"	"Y"	"Y"	"ECOG=0"	0	"ECOG=0"	0	2008-10-02	"2008-10-02"	08:18:00	"08:18"	2008-10-02	"2008-10-02"	2011-07-28	"2011-07-28"	"ECOG=0 or ECOG=1"	0	"DM"	"Years"	"2008-10-02T08:18"	10:55:00	"10:55"	NA	""
"499"	"69"	"EFC6546"	"006546-470-208-701"	"470208701"	"ECOG=0 or ECOG=1"	0	"M"	1	"CAUCASIAN/WHITE"	1	"PLACEBO"	"PLACEBO"	0	"PLACEBO"	"PLACEBO"	0	"Y"	"Y"	"Y"	"Y"	"ECOG=1"	1	"ECOG=1"	1	2009-04-13	"2009-04-13"	15:32:00	"15:32"	2009-04-13	"2009-04-13"	2009-12-16	"2009-12-16"	"ECOG=0 or ECOG=1"	0	"DM"	"Years"	"2009-04-13T15:32"	17:26:00	"17:26"	NA	""
"500"	"67"	"EFC6546"	"006546-470-298-401"	"470298401"	""	NA	"M"	1	"CAUCASIAN/WHITE"	1	"SCRNFAIL"	"SCREEN FAILURE"	NA	"SCRNFAIL"	"SCREEN FAILURE"	NA	"N"	"N"	"N"	"N"	""	NA	""	NA	NA	""	NA	""	NA	""	NA	""	""	NA	"DM"	"Years"	""	NA	""	NA	""
"501"	">=85"	"EFC6546"	"006546-470-298-501"	"470298501"	""	NA	"M"	1	"CAUCASIAN/WHITE"	1	"SCRNFAIL"	"SCREEN FAILURE"	NA	"SCRNFAIL"	"SCREEN FAILURE"	NA	"N"	"N"	"N"	"N"	""	NA	""	NA	NA	""	NA	""	NA	""	NA	""	""	NA	"DM"	"Years"	""	NA	""	NA	""
"502"	"78"	"EFC6546"	"006546-470-408-511"	"470408511"	"ECOG=0 or ECOG=1"	0	"M"	1	"CAUCASIAN/WHITE"	1	"PLACEBO"	"PLACEBO"	0	"PLACEBO"	"PLACEBO"	0	"Y"	"Y"	"Y"	"Y"	"ECOG=0"	0	"ECOG=0"	0	2009-04-02	"2009-04-02"	09:34:00	"09:34"	2009-04-02	"2009-04-02"	2010-05-27	"2010-05-27"	"ECOG=0 or ECOG=1"	0	"DM"	"Years"	"2009-04-02T09:34"	11:28:00	"11:28"	NA	""
"503"	"68"	"EFC6546"	"006546-470-408-711"	"470408711"	"ECOG=0 or ECOG=1"	0	"M"	1	"CAUCASIAN/WHITE"	1	"PLACEBO"	"PLACEBO"	0	"PLACEBO"	"PLACEBO"	0	"Y"	"Y"	"Y"	"Y"	"ECOG=0"	0	"ECOG=0"	0	2009-07-06	"2009-07-06"	16:03:00	"16:03"	2009-07-07	"2009-07-07"	2010-02-03	"2010-02-03"	"ECOG=0 or ECOG=1"	0	"DM"	"Years"	"2009-07-06T16:03"	09:49:00	"09:49"	NA	""
"504"	"74"	"EFC6546"	"006546-470-408-811"	"470408811"	"ECOG=0 or ECOG=1"	0	"M"	1	"CAUCASIAN/WHITE"	1	"PLACEBO"	"PLACEBO"	0	"PLACEBO"	"PLACEBO"	0	"Y"	"Y"	"Y"	"Y"	"ECOG=0"	0	"ECOG=0"	0	2010-02-09	"2010-02-09"	11:37:00	"11:37"	2010-02-10	"2010-02-10"	2011-06-08	"2011-06-08"	"ECOG=0 or ECOG=1"	0	"DM"	"Years"	"2010-02-09T11:37"	10:22:00	"10:22"	NA	""
"505"	"69"	"EFC6546"	"006546-470-808-401"	"470808401"	"ECOG=0 or ECOG=1"	0	"M"	1	"BLACK"	2	"PLACEBO"	"PLACEBO"	0	"PLACEBO"	"PLACEBO"	0	"Y"	"Y"	"Y"	"Y"	"ECOG=0"	0	"ECOG=0"	0	2008-07-09	"2008-07-09"	13:05:00	"13:05"	2008-07-10	"2008-07-10"	2008-10-16	"2008-10-16"	"ECOG=0 or ECOG=1"	0	"DM"	"Years"	"2008-07-09T13:05"	13:36:00	"13:36"	NA	""
"506"	"64"	"EFC6546"	"006546-470-898-401"	"470898401"	""	NA	"M"	1	"CAUCASIAN/WHITE"	1	"SCRNFAIL"	"SCREEN FAILURE"	NA	"SCRNFAIL"	"SCREEN FAILURE"	NA	"N"	"N"	"N"	"N"	""	NA	""	NA	NA	""	NA	""	NA	""	NA	""	""	NA	"DM"	"Years"	""	NA	""	NA	""
"507"	"76"	"EFC6546"	"006546-470-898-501"	"470898501"	""	NA	"M"	1	"CAUCASIAN/WHITE"	1	"SCRNFAIL"	"SCREEN FAILURE"	NA	"SCRNFAIL"	"SCREEN FAILURE"	NA	"N"	"N"	"N"	"N"	""	NA	""	NA	NA	""	NA	""	NA	""	NA	""	""	NA	"DM"	"Years"	""	NA	""	NA	""
"508"	"79"	"EFC6546"	"006546-470-898-601"	"470898601"	""	NA	"M"	1	"CAUCASIAN/WHITE"	1	"SCRNFAIL"	"SCREEN FAILURE"	NA	"SCRNFAIL"	"SCREEN FAILURE"	NA	"N"	"N"	"N"	"N"	""	NA	""	NA	NA	""	NA	""	NA	""	NA	""	""	NA	"DM"	"Years"	""	NA	""	NA	""
"509"	"62"	"EFC6546"	"006546-470-898-701"	"470898701"	""	NA	"M"	1	"CAUCASIAN/WHITE"	1	"SCRNFAIL"	"SCREEN FAILURE"	NA	"SCRNFAIL"	"SCREEN FAILURE"	NA	"N"	"N"	"N"	"N"	""	NA	""	NA	NA	""	NA	""	NA	""	NA	""	""	NA	"DM"	"Years"	""	NA	""	NA	""
"510"	"65"	"EFC6546"	"006546-470-898-801"	"470898801"	""	NA	"M"	1	"BLACK"	2	"SCRNFAIL"	"SCREEN FAILURE"	NA	"SCRNFAIL"	"SCREEN FAILURE"	NA	"N"	"N"	"N"	"N"	""	NA	""	NA	NA	""	NA	""	NA	""	NA	""	""	NA	"DM"	"Years"	""	NA	""	NA	""
"511"	"59"	"EFC6546"	"006546-473-006-102"	"473006102"	"ECOG=0 or ECOG=1"	0	"M"	1	"CAUCASIAN/WHITE"	1	"PLACEBO"	"PLACEBO"	0	"PLACEBO"	"PLACEBO"	0	"Y"	"Y"	"Y"	"Y"	"ECOG=1"	1	"ECOG=1"	1	2009-03-30	"2009-03-30"	22:54:00	"22:54"	2009-03-31	"2009-03-31"	2009-07-17	"2009-07-17"	"ECOG=0 or ECOG=1"	0	"DM"	"Years"	"2009-03-30T22:54"	11:20:00	"11:20"	NA	""
"512"	"60"	"EFC6546"	"006546-473-006-302"	"473006302"	"ECOG=0 or ECOG=1"	0	"M"	1	"CAUCASIAN/WHITE"	1	"PLACEBO"	"PLACEBO"	0	"PLACEBO"	"PLACEBO"	0	"Y"	"Y"	"Y"	"Y"	"ECOG=1"	1	"ECOG=1"	1	2009-06-29	"2009-06-29"	19:34:00	"19:34"	2009-06-30	"2009-06-30"	2010-03-19	"2010-03-19"	"ECOG=0 or ECOG=1"	0	"DM"	"Years"	"2009-06-29T19:34"	NA	"XX:XX"	NA	"XX:XX"
"513"	"48"	"EFC6546"	"006546-473-006-401"	"473006401"	"ECOG=0 or ECOG=1"	0	"M"	1	"CAUCASIAN/WHITE"	1	"PLACEBO"	"PLACEBO"	0	"PLACEBO"	"PLACEBO"	0	"Y"	"Y"	"Y"	"Y"	"ECOG=1"	1	"ECOG=1"	1	2008-01-22	"2008-01-22"	19:57:00	"19:57"	2008-01-25	"2008-01-25"	2008-07-17	"2008-07-17"	"ECOG=0 or ECOG=1"	0	"DM"	"Years"	"2008-01-22T19:57"	09:50:00	"09:50"	NA	""
"514"	"70"	"EFC6546"	"006546-473-006-502"	"473006502"	"ECOG=0 or ECOG=1"	0	"M"	1	"CAUCASIAN/WHITE"	1	"PLACEBO"	"PLACEBO"	0	"PLACEBO"	"PLACEBO"	0	"Y"	"Y"	"Y"	"Y"	"ECOG=1"	1	"ECOG=1"	1	2009-10-10	"2009-10-10"	15:40:00	"15:40"	2009-10-12	"2009-10-12"	2010-07-09	"2010-07-09"	"ECOG=0 or ECOG=1"	0	"DM"	"Years"	"2009-10-10T15:40"	09:20:00	"09:20"	NA	""
"515"	"40"	"EFC6546"	"006546-473-006-601"	"473006601"	"ECOG=0 or ECOG=1"	0	"M"	1	"CAUCASIAN/WHITE"	1	"PLACEBO"	"PLACEBO"	0	"PLACEBO"	"PLACEBO"	0	"Y"	"Y"	"Y"	"Y"	"ECOG=1"	1	"ECOG=1"	1	2008-06-01	"2008-06-01"	19:16:00	"19:16"	2008-06-02	"2008-06-02"	2009-01-11	"2009-01-11"	"ECOG=0 or ECOG=1"	0	"DM"	"Years"	"2008-06-01T19:16"	10:00:00	"10:00"	NA	""
"516"	"69"	"EFC6546"	"006546-473-006-602"	"473006602"	"ECOG=0 or ECOG=1"	0	"M"	1	"CAUCASIAN/WHITE"	1	"PLACEBO"	"PLACEBO"	0	"PLACEBO"	"PLACEBO"	0	"Y"	"Y"	"Y"	"Y"	"ECOG=1"	1	"ECOG=1"	1	2009-11-12	"2009-11-12"	15:59:00	"15:59"	2009-11-13	"2009-11-13"	2010-07-09	"2010-07-09"	"ECOG=0 or ECOG=1"	0	"DM"	"Years"	"2009-11-12T15:59"	08:50:00	"08:50"	NA	""
"517"	"55"	"EFC6546"	"006546-473-006-702"	"473006702"	"ECOG=0 or ECOG=1"	0	"M"	1	"CAUCASIAN/WHITE"	1	"PLACEBO"	"PLACEBO"	0	"PLACEBO"	"PLACEBO"	0	"Y"	"Y"	"Y"	"Y"	"ECOG=1"	1	"ECOG=1"	1	2009-12-21	"2009-12-21"	15:54:00	"15:54"	2009-12-22	"2009-12-22"	2010-03-19	"2010-03-19"	"ECOG=0 or ECOG=1"	0	"DM"	"Years"	"2009-12-21T15:54"	11:00:00	"11:00"	NA	""
"518"	"73"	"EFC6546"	"006546-473-006-802"	"473006802"	"ECOG=0 or ECOG=1"	0	"M"	1	"CAUCASIAN/WHITE"	1	"PLACEBO"	"PLACEBO"	0	"PLACEBO"	"PLACEBO"	0	"Y"	"Y"	"Y"	"Y"	"ECOG=1"	1	"ECOG=1"	1	2009-12-28	"2009-12-28"	20:01:00	"20:01"	2009-12-29	"2009-12-29"	2010-08-12	"2010-08-12"	"ECOG=0 or ECOG=1"	0	"DM"	"Years"	"2009-12-28T20:01"	10:00:00	"10:00"	NA	""
"519"	"63"	"EFC6546"	"006546-473-006-901"	"473006901"	"ECOG=0 or ECOG=1"	0	"M"	1	"CAUCASIAN/WHITE"	1	"PLACEBO"	"PLACEBO"	0	"PLACEBO"	"PLACEBO"	0	"Y"	"Y"	"Y"	"Y"	"ECOG=0"	0	"ECOG=0"	0	2009-02-18	"2009-02-18"	19:01:00	"19:01"	2009-02-19	"2009-02-19"	2009-05-15	"2009-05-15"	"ECOG=0 or ECOG=1"	0	"DM"	"Years"	"2009-02-18T19:01"	10:40:00	"10:40"	NA	""
"520"	"58"	"EFC6546"	"006546-473-096-401"	"473096401"	""	NA	"M"	1	"CAUCASIAN/WHITE"	1	"SCRNFAIL"	"SCREEN FAILURE"	NA	"SCRNFAIL"	"SCREEN FAILURE"	NA	"N"	"N"	"N"	"N"	""	NA	""	NA	NA	""	NA	""	NA	""	NA	""	""	NA	"DM"	"Years"	""	NA	""	NA	""
"521"	"69"	"EFC6546"	"006546-480-108-501"	"480108501"	"ECOG=0 or ECOG=1"	0	"M"	1	"CAUCASIAN/WHITE"	1	"PLACEBO"	"PLACEBO"	0	"PLACEBO"	"PLACEBO"	0	"Y"	"Y"	"Y"	"Y"	"ECOG=1"	1	"ECOG=1"	1	2009-08-05	"2009-08-05"	10:37:00	"10:37"	2009-08-05	"2009-08-05"	2009-12-30	"2009-12-30"	"ECOG=0 or ECOG=1"	0	"DM"	"Years"	"2009-08-05T10:37"	12:16:00	"12:16"	NA	""
"522"	"76"	"EFC6546"	"006546-480-198-401"	"480198401"	""	NA	"M"	1	"CAUCASIAN/WHITE"	1	"SCRNFAIL"	"SCREEN FAILURE"	NA	"SCRNFAIL"	"SCREEN FAILURE"	NA	"N"	"N"	"N"	"N"	""	NA	""	NA	NA	""	NA	""	NA	""	NA	""	""	NA	"DM"	"Years"	""	NA	""	NA	""
"523"	"82"	"EFC6546"	"006546-480-208-002"	"480208002"	"ECOG=0 or ECOG=1"	0	"M"	1	"CAUCASIAN/WHITE"	1	"PLACEBO"	"PLACEBO"	0	"PLACEBO"	"PLACEBO"	0	"Y"	"Y"	"Y"	"Y"	"ECOG=0"	0	"ECOG=0"	0	2009-03-02	"2009-03-02"	08:31:00	"08:31"	2009-03-02	"2009-03-02"	2009-06-15	"2009-06-15"	"ECOG=0 or ECOG=1"	0	"DM"	"Years"	"2009-03-02T08:31"	12:23:00	"12:23"	NA	""
"524"	"81"	"EFC6546"	"006546-480-208-102"	"480208102"	"ECOG=0 or ECOG=1"	0	"M"	1	"CAUCASIAN/WHITE"	1	"PLACEBO"	"PLACEBO"	0	"PLACEBO"	"PLACEBO"	0	"Y"	"Y"	"Y"	"Y"	"ECOG=0"	0	"ECOG=0"	0	2009-06-03	"2009-06-03"	10:52:00	"10:52"	2009-06-03	"2009-06-03"	2010-09-29	"2010-09-29"	"ECOG=0 or ECOG=1"	0	"DM"	"Years"	"2009-06-03T10:52"	12:29:00	"12:29"	NA	""
"525"	"80"	"EFC6546"	"006546-480-208-202"	"480208202"	"ECOG=0 or ECOG=1"	0	"M"	1	"CAUCASIAN/WHITE"	1	"PLACEBO"	"PLACEBO"	0	"PLACEBO"	"PLACEBO"	0	"Y"	"Y"	"Y"	"Y"	"ECOG=0"	0	"ECOG=0"	0	2009-06-11	"2009-06-11"	09:33:00	"09:33"	2009-06-11	"2009-06-11"	2009-08-13	"2009-08-13"	"ECOG=0 or ECOG=1"	0	"DM"	"Years"	"2009-06-11T09:33"	11:05:00	"11:05"	NA	""
"526"	"79"	"EFC6546"	"006546-480-208-302"	"480208302"	"ECOG=0 or ECOG=1"	0	"M"	1	"CAUCASIAN/WHITE"	1	"PLACEBO"	"PLACEBO"	0	"PLACEBO"	"PLACEBO"	0	"Y"	"Y"	"Y"	"Y"	"ECOG=0"	0	"ECOG=0"	0	2010-01-06	"2010-01-06"	09:29:00	"09:29"	2010-01-06	"2010-01-06"	2010-03-10	"2010-03-10"	"ECOG=0 or ECOG=1"	0	"DM"	"Years"	"2010-01-06T09:29"	11:32:00	"11:32"	NA	""
"527"	"83"	"EFC6546"	"006546-480-208-801"	"480208801"	"ECOG=0 or ECOG=1"	0	"M"	1	"CAUCASIAN/WHITE"	1	"PLACEBO"	"PLACEBO"	0	"PLACEBO"	"PLACEBO"	0	"Y"	"Y"	"Y"	"Y"	"ECOG=0"	0	"ECOG=0"	0	2008-10-07	"2008-10-07"	16:25:00	"16:25"	2008-10-08	"2008-10-08"	2009-07-21	"2009-07-21"	"ECOG=0 or ECOG=1"	0	"DM"	"Years"	"2008-10-07T16:25"	14:57:00	"14:57"	NA	""
"528"	"81"	"EFC6546"	"006546-480-298-401"	"480298401"	""	NA	"M"	1	"BLACK"	2	"SCRNFAIL"	"SCREEN FAILURE"	NA	"SCRNFAIL"	"SCREEN FAILURE"	NA	"N"	"N"	"N"	"N"	""	NA	""	NA	NA	""	NA	""	NA	""	NA	""	""	NA	"DM"	"Years"	""	NA	""	NA	""
"529"	"58"	"EFC6546"	"006546-480-308-611"	"480308611"	"ECOG=0 or ECOG=1"	0	"M"	1	"BLACK"	2	"PLACEBO"	"PLACEBO"	0	"PLACEBO"	"PLACEBO"	0	"Y"	"Y"	"Y"	"Y"	"ECOG=1"	1	"ECOG=1"	1	2009-04-03	"2009-04-03"	08:54:00	"08:54"	2009-04-03	"2009-04-03"	2009-09-18	"2009-09-18"	"ECOG=0 or ECOG=1"	0	"DM"	"Years"	"2009-04-03T08:54"	12:30:00	"12:30"	NA	""
"530"	"82"	"EFC6546"	"006546-480-498-401"	"480498401"	""	NA	"M"	1	"CAUCASIAN/WHITE"	1	"SCRNFAIL"	"SCREEN FAILURE"	NA	"SCRNFAIL"	"SCREEN FAILURE"	NA	"N"	"N"	"N"	"N"	""	NA	""	NA	NA	""	NA	""	NA	""	NA	""	""	NA	"DM"	"Years"	""	NA	""	NA	""
"531"	"70"	"EFC6546"	"006546-480-498-501"	"480498501"	""	NA	"M"	1	"OTHER"	99	"SCRNFAIL"	"SCREEN FAILURE"	NA	"SCRNFAIL"	"SCREEN FAILURE"	NA	"N"	"N"	"N"	"N"	""	NA	""	NA	NA	""	NA	""	NA	""	NA	""	""	NA	"DM"	"Years"	""	NA	""	NA	""
"532"	"73"	"EFC6546"	"006546-480-498-601"	"480498601"	""	NA	"M"	1	"OTHER"	99	"SCRNFAIL"	"SCREEN FAILURE"	NA	"SCRNFAIL"	"SCREEN FAILURE"	NA	"N"	"N"	"N"	"N"	""	NA	""	NA	NA	""	NA	""	NA	""	NA	""	""	NA	"DM"	"Years"	""	NA	""	NA	""
"533"	"64"	"EFC6546"	"006546-480-498-701"	"480498701"	""	NA	"M"	1	"CAUCASIAN/WHITE"	1	"SCRNFAIL"	"SCREEN FAILURE"	NA	"SCRNFAIL"	"SCREEN FAILURE"	NA	"N"	"N"	"N"	"N"	""	NA	""	NA	NA	""	NA	""	NA	""	NA	""	""	NA	"DM"	"Years"	""	NA	""	NA	""
"534"	"73"	"EFC6546"	"006546-480-498-801"	"480498801"	""	NA	"M"	1	"CAUCASIAN/WHITE"	1	"SCRNFAIL"	"SCREEN FAILURE"	NA	"SCRNFAIL"	"SCREEN FAILURE"	NA	"N"	"N"	"N"	"N"	""	NA	""	NA	NA	""	NA	""	NA	""	NA	""	""	NA	"DM"	"Years"	""	NA	""	NA	""
"535"	"77"	"EFC6546"	"006546-480-508-501"	"480508501"	"ECOG=0 or ECOG=1"	0	"M"	1	"CAUCASIAN/WHITE"	1	"PLACEBO"	"PLACEBO"	0	"PLACEBO"	"PLACEBO"	0	"Y"	"Y"	"Y"	"Y"	"ECOG=1"	1	"ECOG=1"	1	2008-04-23	"2008-04-23"	10:55:00	"10:55"	2008-04-23	"2008-04-23"	2009-02-11	"2009-02-11"	"ECOG=0 or ECOG=1"	0	"DM"	"Years"	"2008-04-23T10:55"	11:40:00	"11:40"	13:00:00	"13:00"
"536"	"84"	"EFC6546"	"006546-480-508-601"	"480508601"	"ECOG=0 or ECOG=1"	0	"M"	1	"CAUCASIAN/WHITE"	1	"PLACEBO"	"PLACEBO"	0	"PLACEBO"	"PLACEBO"	0	"Y"	"Y"	"Y"	"Y"	"ECOG=1"	1	"ECOG=1"	1	2008-05-28	"2008-05-28"	10:38:00	"10:38"	2008-05-28	"2008-05-28"	2008-07-30	"2008-07-30"	"ECOG=0 or ECOG=1"	0	"DM"	"Years"	"2008-05-28T10:38"	11:30:00	"11:30"	NA	""
"537"	"78"	"EFC6546"	"006546-480-598-401"	"480598401"	""	NA	"M"	1	"CAUCASIAN/WHITE"	1	"SCRNFAIL"	"SCREEN FAILURE"	NA	"SCRNFAIL"	"SCREEN FAILURE"	NA	"N"	"N"	"N"	"N"	""	NA	""	NA	NA	""	NA	""	NA	""	NA	""	""	NA	"DM"	"Years"	""	NA	""	NA	""
"538"	"75"	"EFC6546"	"006546-483-006-102"	"483006102"	"ECOG=0 or ECOG=1"	0	"M"	1	"CAUCASIAN/WHITE"	1	"PLACEBO"	"PLACEBO"	0	"PLACEBO"	"PLACEBO"	0	"Y"	"Y"	"Y"	"Y"	"ECOG=1"	1	"ECOG=1"	1	2008-10-23	"2008-10-23"	14:35:00	"14:35"	2008-10-24	"2008-10-24"	2009-01-15	"2009-01-15"	"ECOG=0 or ECOG=1"	0	"DM"	"Years"	"2008-10-23T14:35"	08:00:00	"08:00"	NA	""
"539"	"74"	"EFC6546"	"006546-483-006-103"	"483006103"	"ECOG=0 or ECOG=1"	0	"M"	1	"CAUCASIAN/WHITE"	1	"PLACEBO"	"PLACEBO"	0	"PLACEBO"	"PLACEBO"	0	"Y"	"Y"	"Y"	"Y"	"ECOG=1"	1	"ECOG=1"	1	2009-04-27	"2009-04-27"	13:46:00	"13:46"	2009-04-28	"2009-04-28"	2009-11-26	"2009-11-26"	"ECOG=0 or ECOG=1"	0	"DM"	"Years"	"2009-04-27T13:46"	08:30:00	"08:30"	NA	""
"540"	"60"	"EFC6546"	"006546-483-006-401"	"483006401"	"ECOG=0 or ECOG=1"	0	"M"	1	"CAUCASIAN/WHITE"	1	"PLACEBO"	"PLACEBO"	0	"PLACEBO"	"PLACEBO"	0	"Y"	"Y"	"Y"	"Y"	"ECOG=1"	1	"ECOG=1"	1	2008-05-15	"2008-05-15"	16:03:00	"16:03"	2008-05-16	"2008-05-16"	2008-12-31	"2008-12-31"	"ECOG=0 or ECOG=1"	0	"DM"	"Years"	"2008-05-15T16:03"	10:00:00	"10:00"	NA	""
"541"	"69"	"EFC6546"	"006546-483-006-402"	"483006402"	"ECOG=0 or ECOG=1"	0	"M"	1	"CAUCASIAN/WHITE"	1	"PLACEBO"	"PLACEBO"	0	"PLACEBO"	"PLACEBO"	0	"Y"	"Y"	"Y"	"Y"	"ECOG=1"	1	"ECOG=1"	1	2009-02-26	"2009-02-26"	15:09:00	"15:09"	2009-02-27	"2009-02-27"	2010-04-27	"2010-04-27"	"ECOG=0 or ECOG=1"	0	"DM"	"Years"	"2009-02-26T15:09"	08:00:00	"08:00"	NA	""
"542"	"63"	"EFC6546"	"006546-483-006-403"	"483006403"	"ECOG=0 or ECOG=1"	0	"M"	1	"CAUCASIAN/WHITE"	1	"PLACEBO"	"PLACEBO"	0	"PLACEBO"	"PLACEBO"	0	"Y"	"Y"	"Y"	"Y"	"ECOG=1"	1	"ECOG=1"	1	2009-10-15	"2009-10-15"	15:40:00	"15:40"	2009-10-16	"2009-10-16"	2010-01-12	"2010-01-12"	"ECOG=0 or ECOG=1"	0	"DM"	"Years"	"2009-10-15T15:40"	08:30:00	"08:30"	NA	""
"543"	"72"	"EFC6546"	"006546-483-006-502"	"483006502"	"ECOG=0 or ECOG=1"	0	"M"	1	"CAUCASIAN/WHITE"	1	"PLACEBO"	"PLACEBO"	0	"PLACEBO"	"PLACEBO"	0	"Y"	"Y"	"Y"	"Y"	"ECOG=1"	1	"ECOG=1"	1	2009-02-26	"2009-02-26"	15:12:00	"15:12"	2009-02-27	"2009-02-27"	2009-02-27	"2009-02-27"	"ECOG=0 or ECOG=1"	0	"DM"	"Years"	"2009-02-26T15:12"	08:10:00	"08:10"	NA	""
"544"	"57"	"EFC6546"	"006546-483-006-503"	"483006503"	"ECOG=0 or ECOG=1"	0	"M"	1	"CAUCASIAN/WHITE"	1	"PLACEBO"	"PLACEBO"	0	"PLACEBO"	"PLACEBO"	0	"Y"	"Y"	"Y"	"Y"	"ECOG=1"	1	"ECOG=1"	1	2009-10-22	"2009-10-22"	17:11:00	"17:11"	2009-10-23	"2009-10-23"	2010-01-14	"2010-01-14"	"ECOG=0 or ECOG=1"	0	"DM"	"Years"	"2009-10-22T17:11"	08:24:00	"08:24"	NA	""
"545"	"59"	"EFC6546"	"006546-483-006-601"	"483006601"	"ECOG=0 or ECOG=1"	0	"M"	1	"CAUCASIAN/WHITE"	1	"PLACEBO"	"PLACEBO"	0	"PLACEBO"	"PLACEBO"	0	"Y"	"Y"	"Y"	"Y"	"ECOG=1"	1	"ECOG=1"	1	2008-06-05	"2008-06-05"	15:58:00	"15:58"	2008-06-06	"2008-06-06"	2009-12-24	"2009-12-24"	"ECOG=0 or ECOG=1"	0	"DM"	"Years"	"2008-06-05T15:58"	10:10:00	"10:10"	NA	""
"546"	"67"	"EFC6546"	"006546-483-006-603"	"483006603"	"ECOG=0 or ECOG=1"	0	"M"	1	"CAUCASIAN/WHITE"	1	"PLACEBO"	"PLACEBO"	0	"PLACEBO"	"PLACEBO"	0	"Y"	"Y"	"Y"	"Y"	"ECOG=1"	1	"ECOG=1"	1	2009-10-27	"2009-10-27"	13:19:00	"13:19"	2009-10-27	"2009-10-27"	2009-12-29	"2009-12-29"	"ECOG=0 or ECOG=1"	0	"DM"	"Years"	"2009-10-27T13:19"	13:35:00	"13:35"	NA	""
"547"	"52"	"EFC6546"	"006546-483-006-702"	"483006702"	"ECOG=0 or ECOG=1"	0	"M"	1	"CAUCASIAN/WHITE"	1	"PLACEBO"	"PLACEBO"	0	"PLACEBO"	"PLACEBO"	0	"Y"	"Y"	"Y"	"Y"	"ECOG=1"	1	"ECOG=1"	1	2009-03-26	"2009-03-26"	16:43:00	"16:43"	2009-03-27	"2009-03-27"	2009-06-18	"2009-06-18"	"ECOG=0 or ECOG=1"	0	"DM"	"Years"	"2009-03-26T16:43"	08:25:00	"08:25"	NA	""
"548"	"60"	"EFC6546"	"006546-483-006-801"	"483006801"	"ECOG=0 or ECOG=1"	0	"M"	1	"CAUCASIAN/WHITE"	1	"PLACEBO"	"PLACEBO"	0	"PLACEBO"	"PLACEBO"	0	"Y"	"Y"	"Y"	"Y"	"ECOG=1"	1	"ECOG=1"	1	2008-08-07	"2008-08-07"	15:59:00	"15:59"	2008-08-08	"2008-08-08"	2009-03-06	"2009-03-06"	"ECOG=0 or ECOG=1"	0	"DM"	"Years"	"2008-08-07T15:59"	12:00:00	"12:00"	NA	""
"549"	"74"	"EFC6546"	"006546-483-096-401"	"483096401"	""	NA	"M"	1	"CAUCASIAN/WHITE"	1	"SCRNFAIL"	"SCREEN FAILURE"	NA	"SCRNFAIL"	"SCREEN FAILURE"	NA	"N"	"N"	"N"	"N"	""	NA	""	NA	NA	""	NA	""	NA	""	NA	""	""	NA	"DM"	"Years"	""	NA	""	NA	""
"550"	"72"	"EFC6546"	"006546-483-096-501"	"483096501"	""	NA	"M"	1	"CAUCASIAN/WHITE"	1	"SCRNFAIL"	"SCREEN FAILURE"	NA	"SCRNFAIL"	"SCREEN FAILURE"	NA	"N"	"N"	"N"	"N"	""	NA	""	NA	NA	""	NA	""	NA	""	NA	""	""	NA	"DM"	"Years"	""	NA	""	NA	""
"551"	"70"	"EFC6546"	"006546-483-096-601"	"483096601"	""	NA	"M"	1	"CAUCASIAN/WHITE"	1	"SCRNFAIL"	"SCREEN FAILURE"	NA	"SCRNFAIL"	"SCREEN FAILURE"	NA	"N"	"N"	"N"	"N"	""	NA	""	NA	NA	""	NA	""	NA	""	NA	""	""	NA	"DM"	"Years"	""	NA	""	NA	""
"552"	"80"	"EFC6546"	"006546-483-096-701"	"483096701"	""	NA	"M"	1	"CAUCASIAN/WHITE"	1	"SCRNFAIL"	"SCREEN FAILURE"	NA	"SCRNFAIL"	"SCREEN FAILURE"	NA	"N"	"N"	"N"	"N"	""	NA	""	NA	NA	""	NA	""	NA	""	NA	""	""	NA	"DM"	"Years"	""	NA	""	NA	""
"553"	"66"	"EFC6546"	"006546-490-308-501"	"490308501"	"ECOG=0 or ECOG=1"	0	"M"	1	"BLACK"	2	"PLACEBO"	"PLACEBO"	0	"PLACEBO"	"PLACEBO"	0	"Y"	"Y"	"Y"	"Y"	"ECOG=0"	0	"ECOG=0"	0	2009-05-13	"2009-05-13"	15:15:00	"15:15"	2009-05-15	"2009-05-15"	2010-08-24	"2010-08-24"	"ECOG=0 or ECOG=1"	0	"DM"	"Years"	"2009-05-13T15:15"	09:40:00	"09:40"	NA	""
"554"	"55"	"EFC6546"	"006546-490-308-801"	"490308801"	"ECOG=0 or ECOG=1"	0	"M"	1	"CAUCASIAN/WHITE"	1	"PLACEBO"	"PLACEBO"	0	"PLACEBO"	"PLACEBO"	0	"Y"	"Y"	"Y"	"Y"	"ECOG=0"	0	"ECOG=0"	0	2009-12-17	"2009-12-17"	13:26:00	"13:26"	2009-12-17	"2009-12-17"	2010-04-01	"2010-04-01"	"ECOG=0 or ECOG=1"	0	"DM"	"Years"	"2009-12-17T13:26"	14:30:00	"14:30"	NA	""
"555"	"54"	"EFC6546"	"006546-490-398-401"	"490398401"	""	NA	"M"	1	"BLACK"	2	"SCRNFAIL"	"SCREEN FAILURE"	NA	"SCRNFAIL"	"SCREEN FAILURE"	NA	"N"	"N"	"N"	"N"	""	NA	""	NA	NA	""	NA	""	NA	""	NA	""	""	NA	"DM"	"Years"	""	NA	""	NA	""
"556"	"71"	"EFC6546"	"006546-490-398-411"	"490398411"	""	NA	"M"	1	"BLACK"	2	"SCRNFAIL"	"SCREEN FAILURE"	NA	"SCRNFAIL"	"SCREEN FAILURE"	NA	"N"	"N"	"N"	"N"	""	NA	""	NA	NA	""	NA	""	NA	""	NA	""	""	NA	"DM"	"Years"	""	NA	""	NA	""
"557"	"45"	"EFC6546"	"006546-490-398-501"	"490398501"	""	NA	"M"	1	"CAUCASIAN/WHITE"	1	"SCRNFAIL"	"SCREEN FAILURE"	NA	"SCRNFAIL"	"SCREEN FAILURE"	NA	"N"	"N"	"N"	"N"	""	NA	""	NA	NA	""	NA	""	NA	""	NA	""	""	NA	"DM"	"Years"	""	NA	""	NA	""
"558"	"72"	"EFC6546"	"006546-493-006-102"	"493006102"	"ECOG=0 or ECOG=1"	0	"M"	1	"CAUCASIAN/WHITE"	1	"PLACEBO"	"PLACEBO"	0	"PLACEBO"	"PLACEBO"	0	"Y"	"Y"	"Y"	"Y"	"ECOG=0"	0	"ECOG=0"	0	2009-06-30	"2009-06-30"	12:15:00	"12:15"	2009-06-30	"2009-06-30"	2009-11-05	"2009-11-05"	"ECOG=0 or ECOG=1"	0	"DM"	"Years"	"2009-06-30T12:15"	13:20:00	"13:20"	NA	""
"559"	"65"	"EFC6546"	"006546-493-006-302"	"493006302"	"ECOG=0 or ECOG=1"	0	"M"	1	"CAUCASIAN/WHITE"	1	"PLACEBO"	"PLACEBO"	0	"PLACEBO"	"PLACEBO"	0	"Y"	"Y"	"Y"	"Y"	"ECOG=1"	1	"ECOG=1"	1	2009-09-25	"2009-09-25"	11:00:00	"11:00"	2009-09-25	"2009-09-25"	2010-08-03	"2010-08-03"	"ECOG=0 or ECOG=1"	0	"DM"	"Years"	"2009-09-25T11:00"	15:45:00	"15:45"	NA	""
"560"	"62"	"EFC6546"	"006546-493-006-501"	"493006501"	"ECOG=0 or ECOG=1"	0	"M"	1	"CAUCASIAN/WHITE"	1	"PLACEBO"	"PLACEBO"	0	"PLACEBO"	"PLACEBO"	0	"Y"	"Y"	"Y"	"Y"	"ECOG=0"	0	"ECOG=1"	1	2009-05-18	"2009-05-18"	12:16:00	"12:16"	2009-05-18	"2009-05-18"	2010-04-27	"2010-04-27"	"ECOG=0 or ECOG=1"	0	"DM"	"Years"	"2009-05-18T12:16"	13:40:00	"13:40"	NA	""
"561"	"79"	"EFC6546"	"006546-493-006-701"	"493006701"	"ECOG=0 or ECOG=1"	0	"M"	1	"CAUCASIAN/WHITE"	1	"PLACEBO"	"PLACEBO"	0	"PLACEBO"	"PLACEBO"	0	"Y"	"Y"	"Y"	"Y"	"ECOG=1"	1	"ECOG=1"	1	2009-05-21	"2009-05-21"	13:25:00	"13:25"	2009-05-22	"2009-05-22"	2010-07-27	"2010-07-27"	"ECOG=0 or ECOG=1"	0	"DM"	"Years"	"2009-05-21T13:25"	13:10:00	"13:10"	NA	""
"562"	"66"	"EFC6546"	"006546-493-096-401"	"493096401"	""	NA	"M"	1	"CAUCASIAN/WHITE"	1	"SCRNFAIL"	"SCREEN FAILURE"	NA	"SCRNFAIL"	"SCREEN FAILURE"	NA	"N"	"N"	"N"	"N"	""	NA	""	NA	NA	""	NA	""	NA	""	NA	""	""	NA	"DM"	"Years"	""	NA	""	NA	""
"563"	"59"	"EFC6546"	"006546-500-102-401"	"500102401"	"ECOG=0 or ECOG=1"	0	"M"	1	"BLACK"	2	"PLACEBO"	"PLACEBO"	0	"PLACEBO"	"PLACEBO"	0	"Y"	"Y"	"Y"	"Y"	"ECOG=0"	0	"ECOG=0"	0	2008-04-17	"2008-04-17"	12:23:00	"12:23"	2008-04-18	"2008-04-18"	2009-01-06	"2009-01-06"	"ECOG=0 or ECOG=1"	0	"DM"	"Years"	"2008-04-17T12:23"	11:55:00	"11:55"	NA	""
"564"	"72"	"EFC6546"	"006546-500-102-701"	"500102701"	"ECOG=0 or ECOG=1"	0	"M"	1	"CAUCASIAN/WHITE"	1	"PLACEBO"	"PLACEBO"	0	"PLACEBO"	"PLACEBO"	0	"Y"	"Y"	"Y"	"Y"	"ECOG=0"	0	"ECOG=0"	0	2009-08-03	"2009-08-03"	12:18:00	"12:18"	2009-08-05	"2009-08-05"	2009-12-10	"2009-12-10"	"ECOG=0 or ECOG=1"	0	"DM"	"Years"	"2009-08-03T12:18"	19:00:00	"19:00"	NA	""
"565"	"74"	"EFC6546"	"006546-502-191-401"	"502191401"	""	NA	"M"	1	"CAUCASIAN/WHITE"	1	"SCRNFAIL"	"SCREEN FAILURE"	NA	"SCRNFAIL"	"SCREEN FAILURE"	NA	"N"	"N"	"N"	"N"	""	NA	""	NA	NA	""	NA	""	NA	""	NA	""	""	NA	"DM"	"Years"	""	NA	""	NA	""
"566"	"61"	"EFC6546"	"006546-502-191-501"	"502191501"	""	NA	"M"	1	"CAUCASIAN/WHITE"	1	"SCRNFAIL"	"SCREEN FAILURE"	NA	"SCRNFAIL"	"SCREEN FAILURE"	NA	"N"	"N"	"N"	"N"	""	NA	""	NA	NA	""	NA	""	NA	""	NA	""	""	NA	"DM"	"Years"	""	NA	""	NA	""
"567"	"69"	"EFC6546"	"006546-506-100-401"	"506100401"	"ECOG=0 or ECOG=1"	0	"M"	1	"CAUCASIAN/WHITE"	1	"PLACEBO"	"PLACEBO"	0	"PLACEBO"	"PLACEBO"	0	"Y"	"Y"	"Y"	"Y"	"ECOG=0"	0	"ECOG=0"	0	2009-07-06	"2009-07-06"	16:37:00	"16:37"	2009-07-09	"2009-07-09"	2009-09-10	"2009-09-10"	"ECOG=0 or ECOG=1"	0	"DM"	"Years"	"2009-07-06T16:37"	NA	"XX:XX"	NA	""
"568"	"57"	"EFC6546"	"006546-506-190-401"	"506190401"	""	NA	"M"	1	"CAUCASIAN/WHITE"	1	"SCRNFAIL"	"SCREEN FAILURE"	NA	"SCRNFAIL"	"SCREEN FAILURE"	NA	"N"	"N"	"N"	"N"	""	NA	""	NA	NA	""	NA	""	NA	""	NA	""	""	NA	"DM"	"Years"	""	NA	""	NA	""
"569"	"72"	"EFC6546"	"006546-510-102-102"	"510102102"	"ECOG=0 or ECOG=1"	0	"M"	1	"CAUCASIAN/WHITE"	1	"PLACEBO"	"PLACEBO"	0	"PLACEBO"	"PLACEBO"	0	"Y"	"Y"	"Y"	"Y"	"ECOG=0"	0	"ECOG=0"	0	2010-01-11	"2010-01-11"	11:56:00	"11:56"	2010-01-11	"2010-01-11"	2010-07-01	"2010-07-01"	"ECOG=0 or ECOG=1"	0	"DM"	"Years"	"2010-01-11T11:56"	14:20:00	"14:20"	NA	""
"570"	"55"	"EFC6546"	"006546-510-102-202"	"510102202"	"ECOG=0 or ECOG=1"	0	"M"	1	"CAUCASIAN/WHITE"	1	"PLACEBO"	"PLACEBO"	0	"PLACEBO"	"PLACEBO"	0	"Y"	"Y"	"Y"	"Y"	"ECOG=1"	1	"ECOG=1"	1	2010-02-08	"2010-02-08"	13:44:00	"13:44"	2010-02-08	"2010-02-08"	2010-04-12	"2010-04-12"	"ECOG=0 or ECOG=1"	0	"DM"	"Years"	"2010-02-08T13:44"	14:36:00	"14:36"	NA	""
"571"	"61"	"EFC6546"	"006546-510-102-401"	"510102401"	"ECOG=0 or ECOG=1"	0	"M"	1	"CAUCASIAN/WHITE"	1	"PLACEBO"	"PLACEBO"	0	"PLACEBO"	"PLACEBO"	0	"Y"	"Y"	"Y"	"Y"	"ECOG=0"	0	"ECOG=0"	0	2009-02-18	"2009-02-18"	14:17:00	"14:17"	2009-02-18	"2009-02-18"	2009-10-12	"2009-10-12"	"ECOG=0 or ECOG=1"	0	"DM"	"Years"	"2009-02-18T14:17"	NA	"XX:XX"	NA	"XX:XX"
"572"	"75"	"EFC6546"	"006546-516-100-401"	"516100401"	"ECOG=0 or ECOG=1"	0	"M"	1	"CAUCASIAN/WHITE"	1	"PLACEBO"	"PLACEBO"	0	"PLACEBO"	"PLACEBO"	0	"Y"	"Y"	"Y"	"Y"	"ECOG=1"	1	"ECOG=1"	1	2009-10-05	"2009-10-05"	13:03:00	"13:03"	2009-10-06	"2009-10-06"	2010-04-13	"2010-04-13"	"ECOG=0 or ECOG=1"	0	"DM"	"Years"	"2009-10-05T13:03"	13:50:00	"13:50"	NA	""
"573"	"70"	"EFC6546"	"006546-516-190-401"	"516190401"	""	NA	"M"	1	"CAUCASIAN/WHITE"	1	"SCRNFAIL"	"SCREEN FAILURE"	NA	"SCRNFAIL"	"SCREEN FAILURE"	NA	"N"	"N"	"N"	"N"	""	NA	""	NA	NA	""	NA	""	NA	""	NA	""	""	NA	"DM"	"Years"	""	NA	""	NA	""
"574"	"58"	"EFC6546"	"006546-520-102-401"	"520102401"	"ECOG=0 or ECOG=1"	0	"M"	1	"CAUCASIAN/WHITE"	1	"PLACEBO"	"PLACEBO"	0	"PLACEBO"	"PLACEBO"	0	"Y"	"Y"	"Y"	"Y"	"ECOG=0"	0	"ECOG=0"	0	2009-05-04	"2009-05-04"	13:57:00	"13:57"	2009-05-05	"2009-05-05"	2010-03-16	"2010-03-16"	"ECOG=0 or ECOG=1"	0	"DM"	"Years"	"2009-05-04T13:57"	11:40:00	"11:40"	NA	"XX:XX"
"575"	"74"	"EFC6546"	"006546-520-102-501"	"520102501"	"ECOG=2"	1	"M"	1	"CAUCASIAN/WHITE"	1	"PLACEBO"	"PLACEBO"	0	"PLACEBO"	"PLACEBO"	0	"Y"	"Y"	"Y"	"Y"	"ECOG=2"	2	"ECOG=2"	2	2009-05-14	"2009-05-14"	16:41:00	"16:41"	2009-05-15	"2009-05-15"	2009-06-26	"2009-06-26"	"ECOG=2"	1	"DM"	"Years"	"2009-05-14T16:41"	10:50:00	"10:50"	NA	""
"576"	"60"	"EFC6546"	"006546-520-102-601"	"520102601"	"ECOG=2"	1	"M"	1	"CAUCASIAN/WHITE"	1	"PLACEBO"	"PLACEBO"	0	"PLACEBO"	"PLACEBO"	0	"Y"	"Y"	"Y"	"Y"	"ECOG=2"	2	"ECOG=2"	2	2009-06-05	"2009-06-05"	14:41:00	"14:41"	2009-06-08	"2009-06-08"	2009-10-14	"2009-10-14"	"ECOG=2"	1	"DM"	"Years"	"2009-06-05T14:41"	14:10:00	"14:10"	NA	""
"577"	"67"	"EFC6546"	"006546-520-102-701"	"520102701"	"ECOG=0 or ECOG=1"	0	"M"	1	"CAUCASIAN/WHITE"	1	"PLACEBO"	"PLACEBO"	0	"PLACEBO"	"PLACEBO"	0	"Y"	"Y"	"Y"	"Y"	"ECOG=1"	1	"ECOG=1"	1	2009-09-25	"2009-09-25"	15:42:00	"15:42"	2009-09-28	"2009-09-28"	2009-11-09	"2009-11-09"	"ECOG=0 or ECOG=1"	0	"DM"	"Years"	"2009-09-25T15:42"	10:10:00	"10:10"	NA	""
"578"	"66"	"EFC6546"	"006546-520-102-801"	"520102801"	"ECOG=0 or ECOG=1"	0	"M"	1	"CAUCASIAN/WHITE"	1	"PLACEBO"	"PLACEBO"	0	"PLACEBO"	"PLACEBO"	0	"Y"	"Y"	"Y"	"Y"	"ECOG=1"	1	"ECOG=1"	1	2009-11-06	"2009-11-06"	09:32:00	"09:32"	2009-11-06	"2009-11-06"	2010-01-08	"2010-01-08"	"ECOG=0 or ECOG=1"	0	"DM"	"Years"	"2009-11-06T09:32"	NA	"XX:XX"	NA	""
"579"	"54"	"EFC6546"	"006546-520-192-401"	"520192401"	""	NA	"M"	1	"CAUCASIAN/WHITE"	1	"SCRNFAIL"	"SCREEN FAILURE"	NA	"SCRNFAIL"	"SCREEN FAILURE"	NA	"N"	"N"	"N"	"N"	""	NA	""	NA	NA	""	NA	""	NA	""	NA	""	""	NA	"DM"	"Years"	""	NA	""	NA	""
"580"	"62"	"EFC6546"	"006546-520-192-501"	"520192501"	""	NA	"M"	1	"CAUCASIAN/WHITE"	1	"SCRNFAIL"	"SCREEN FAILURE"	NA	"SCRNFAIL"	"SCREEN FAILURE"	NA	"N"	"N"	"N"	"N"	""	NA	""	NA	NA	""	NA	""	NA	""	NA	""	""	NA	"DM"	"Years"	""	NA	""	NA	""
"581"	"75"	"EFC6546"	"006546-530-002-002"	"530002002"	"ECOG=0 or ECOG=1"	0	"M"	1	"CAUCASIAN/WHITE"	1	"PLACEBO"	"PLACEBO"	0	"PLACEBO"	"PLACEBO"	0	"Y"	"Y"	"Y"	"Y"	"ECOG=1"	1	"ECOG=0"	0	2008-04-11	"2008-04-11"	11:15:00	"11:15"	2008-04-11	"2008-04-11"	2008-09-15	"2008-09-15"	"ECOG=0 or ECOG=1"	0	"DM"	"Years"	"2008-04-11T11:15"	14:10:00	"14:10"	11:45:00	"11:45"
"582"	"64"	"EFC6546"	"006546-530-002-102"	"530002102"	"ECOG=0 or ECOG=1"	0	"M"	1	"CAUCASIAN/WHITE"	1	"PLACEBO"	"PLACEBO"	0	"PLACEBO"	"PLACEBO"	0	"Y"	"Y"	"Y"	"Y"	"ECOG=0"	0	"ECOG=1"	1	2008-07-11	"2008-07-11"	12:16:00	"12:16"	2008-07-11	"2008-07-11"	2008-12-08	"2008-12-08"	"ECOG=0 or ECOG=1"	0	"DM"	"Years"	"2008-07-11T12:16"	16:15:00	"16:15"	NA	""
"583"	"68"	"EFC6546"	"006546-530-002-103"	"530002103"	"ECOG=0 or ECOG=1"	0	"M"	1	"CAUCASIAN/WHITE"	1	"PLACEBO"	"PLACEBO"	0	"PLACEBO"	"PLACEBO"	0	"Y"	"Y"	"Y"	"Y"	"ECOG=1"	1	"ECOG=1"	1	2009-03-09	"2009-03-09"	14:15:00	"14:15"	2009-03-09	"2009-03-09"	2011-08-18	"2011-08-18"	"ECOG=0 or ECOG=1"	0	"DM"	"Years"	"2009-03-09T14:15"	16:35:00	"16:35"	NA	"XX:XX"
"584"	"72"	"EFC6546"	"006546-530-002-202"	"530002202"	"ECOG=0 or ECOG=1"	0	"M"	1	"BLACK"	2	"PLACEBO"	"PLACEBO"	0	"PLACEBO"	"PLACEBO"	0	"Y"	"Y"	"Y"	"Y"	"ECOG=0"	0	"ECOG=0"	0	2008-08-12	"2008-08-12"	10:43:00	"10:43"	2008-08-12	"2008-08-12"	2009-01-29	"2009-01-29"	"ECOG=0 or ECOG=1"	0	"DM"	"Years"	"2008-08-12T10:43"	13:00:00	"13:00"	NA	""
"585"	"66"	"EFC6546"	"006546-530-002-203"	"530002203"	"ECOG=0 or ECOG=1"	0	"M"	1	"CAUCASIAN/WHITE"	1	"PLACEBO"	"PLACEBO"	0	"PLACEBO"	"PLACEBO"	0	"Y"	"Y"	"Y"	"Y"	"ECOG=1"	1	"ECOG=1"	1	2009-04-03	"2009-04-03"	09:20:00	"09:20"	2009-04-03	"2009-04-03"	2010-04-15	"2010-04-15"	"ECOG=0 or ECOG=1"	0	"DM"	"Years"	"2009-04-03T09:20"	11:00:00	"11:00"	NA	"XX:XX"
"586"	"81"	"EFC6546"	"006546-530-002-204"	"530002204"	"ECOG=0 or ECOG=1"	0	"M"	1	"CAUCASIAN/WHITE"	1	"PLACEBO"	"PLACEBO"	0	"PLACEBO"	"PLACEBO"	0	"Y"	"Y"	"Y"	"Y"	"ECOG=1"	1	"ECOG=1"	1	2009-11-06	"2009-11-06"	11:47:00	"11:47"	2009-11-06	"2009-11-06"	2009-11-26	"2009-11-26"	"ECOG=0 or ECOG=1"	0	"DM"	"Years"	"2009-11-06T11:47"	NA	"XX:XX"	NA	""
"587"	"75"	"EFC6546"	"006546-530-002-304"	"530002304"	"ECOG=0 or ECOG=1"	0	"M"	1	"CAUCASIAN/WHITE"	1	"PLACEBO"	"PLACEBO"	0	"PLACEBO"	"PLACEBO"	0	"Y"	"Y"	"Y"	"Y"	"ECOG=1"	1	"ECOG=1"	1	2009-11-13	"2009-11-13"	11:28:00	"11:28"	2009-11-13	"2009-11-13"	2009-12-04	"2009-12-04"	"ECOG=0 or ECOG=1"	0	"DM"	"Years"	"2009-11-13T11:28"	16:00:00	"16:00"	NA	""
"588"	"61"	"EFC6546"	"006546-530-002-402"	"530002402"	"ECOG=0 or ECOG=1"	0	"M"	1	"ASIAN/ORIENTAL"	3	"PLACEBO"	"PLACEBO"	0	"PLACEBO"	"PLACEBO"	0	"Y"	"Y"	"Y"	"Y"	"ECOG=1"	1	"ECOG=1"	1	2008-12-01	"2008-12-01"	15:15:00	"15:15"	2008-12-01	"2008-12-01"	2008-12-19	"2008-12-19"	"ECOG=0 or ECOG=1"	0	"DM"	"Years"	"2008-12-01T15:15"	NA	"XX:XX"	NA	""
"589"	"67"	"EFC6546"	"006546-530-002-404"	"530002404"	"ECOG=0 or ECOG=1"	0	"M"	1	"CAUCASIAN/WHITE"	1	"PLACEBO"	"PLACEBO"	0	"PLACEBO"	"PLACEBO"	0	"Y"	"Y"	"Y"	"Y"	"ECOG=0"	0	"ECOG=0"	0	2009-12-10	"2009-12-10"	14:42:00	"14:42"	2009-12-10	"2009-12-10"	2010-07-08	"2010-07-08"	"ECOG=0 or ECOG=1"	0	"DM"	"Years"	"2009-12-10T14:42"	17:20:00	"17:20"	NA	"XX:XX"
"590"	"67"	"EFC6546"	"006546-530-002-501"	"530002501"	"ECOG=0 or ECOG=1"	0	"M"	1	"CAUCASIAN/WHITE"	1	"PLACEBO"	"PLACEBO"	0	"PLACEBO"	"PLACEBO"	0	"Y"	"Y"	"Y"	"Y"	"ECOG=1"	1	"ECOG=1"	1	2008-01-30	"2008-01-30"	14:06:00	"14:06"	2008-01-30	"2008-01-30"	2008-05-13	"2008-05-13"	"ECOG=0 or ECOG=1"	0	"DM"	"Years"	"2008-01-30T14:06"	16:30:00	"16:30"	NA	""
"591"	"67"	"EFC6546"	"006546-530-002-502"	"530002502"	"ECOG=0 or ECOG=1"	0	"M"	1	"CAUCASIAN/WHITE"	1	"PLACEBO"	"PLACEBO"	0	"PLACEBO"	"PLACEBO"	0	"Y"	"Y"	"Y"	"Y"	"ECOG=0"	0	"ECOG=0"	0	2008-12-04	"2008-12-04"	16:13:00	"16:13"	2008-12-05	"2008-12-05"	2009-08-04	"2009-08-04"	"ECOG=0 or ECOG=1"	0	"DM"	"Years"	"2008-12-04T16:13"	12:00:00	"12:00"	NA	""
"592"	"57"	"EFC6546"	"006546-530-002-503"	"530002503"	"ECOG=0 or ECOG=1"	0	"M"	1	"CAUCASIAN/WHITE"	1	"PLACEBO"	"PLACEBO"	0	"PLACEBO"	"PLACEBO"	0	"Y"	"Y"	"Y"	"Y"	"ECOG=1"	1	"ECOG=1"	1	2009-05-20	"2009-05-20"	13:28:00	"13:28"	2009-05-20	"2009-05-20"	2009-06-10	"2009-06-10"	"ECOG=0 or ECOG=1"	0	"DM"	"Years"	"2009-05-20T13:28"	NA	"XX:XX"	NA	""
"593"	"63"	"EFC6546"	"006546-530-002-601"	"530002601"	"ECOG=0 or ECOG=1"	0	"M"	1	"CAUCASIAN/WHITE"	1	"PLACEBO"	"PLACEBO"	0	"PLACEBO"	"PLACEBO"	0	"Y"	"Y"	"Y"	"Y"	"ECOG=1"	1	"ECOG=0"	0	2008-03-04	"2008-03-04"	15:06:00	"15:06"	2008-03-04	"2008-03-04"	2008-07-22	"2008-07-22"	"ECOG=0 or ECOG=1"	0	"DM"	"Years"	"2008-03-04T15:06"	16:25:00	"16:25"	NA	""
"594"	"78"	"EFC6546"	"006546-530-002-602"	"530002602"	"ECOG=0 or ECOG=1"	0	"M"	1	"CAUCASIAN/WHITE"	1	"PLACEBO"	"PLACEBO"	0	"PLACEBO"	"PLACEBO"	0	"Y"	"Y"	"Y"	"Y"	"ECOG=0"	0	"ECOG=0"	0	2008-12-15	"2008-12-15"	16:47:00	"16:47"	2008-12-16	"2008-12-16"	2009-06-05	"2009-06-05"	"ECOG=0 or ECOG=1"	0	"DM"	"Years"	"2008-12-15T16:47"	12:05:00	"12:05"	15:10:00	"15:10"
"595"	"76"	"EFC6546"	"006546-530-002-701"	"530002701"	"ECOG=0 or ECOG=1"	0	"M"	1	"CAUCASIAN/WHITE"	1	"PLACEBO"	"PLACEBO"	0	"PLACEBO"	"PLACEBO"	0	"Y"	"Y"	"Y"	"Y"	"ECOG=1"	1	"ECOG=1"	1	2008-03-06	"2008-03-06"	10:08:00	"10:08"	2008-03-06	"2008-03-06"	2008-05-14	"2008-05-14"	"ECOG=0 or ECOG=1"	0	"DM"	"Years"	"2008-03-06T10:08"	11:45:00	"11:45"	NA	""
"596"	"66"	"EFC6546"	"006546-530-002-703"	"530002703"	"ECOG=0 or ECOG=1"	0	"M"	1	"CAUCASIAN/WHITE"	1	"PLACEBO"	"PLACEBO"	0	"PLACEBO"	"PLACEBO"	0	"Y"	"Y"	"Y"	"Y"	"ECOG=1"	1	"ECOG=1"	1	2009-07-03	"2009-07-03"	10:33:00	"10:33"	2009-07-03	"2009-07-03"	2009-09-03	"2009-09-03"	"ECOG=0 or ECOG=1"	0	"DM"	"Years"	"2009-07-03T10:33"	11:45:00	"11:45"	NA	""
"597"	"56"	"EFC6546"	"006546-530-002-803"	"530002803"	"ECOG=0 or ECOG=1"	0	"M"	1	"CAUCASIAN/WHITE"	1	"PLACEBO"	"PLACEBO"	0	"PLACEBO"	"PLACEBO"	0	"Y"	"Y"	"Y"	"Y"	"ECOG=1"	1	"ECOG=1"	1	2009-09-16	"2009-09-16"	13:21:00	"13:21"	2009-09-16	"2009-09-16"	2010-01-21	"2010-01-21"	"ECOG=0 or ECOG=1"	0	"DM"	"Years"	"2009-09-16T13:21"	NA	"XX:XX"	NA	""
"598"	"51"	"EFC6546"	"006546-530-002-901"	"530002901"	"ECOG=0 or ECOG=1"	0	"M"	1	"CAUCASIAN/WHITE"	1	"PLACEBO"	"PLACEBO"	0	"PLACEBO"	"PLACEBO"	0	"Y"	"Y"	"Y"	"Y"	"ECOG=0"	0	"ECOG=0"	0	2008-03-28	"2008-03-28"	11:08:00	"11:08"	2008-03-28	"2008-03-28"	2008-07-11	"2008-07-11"	"ECOG=0 or ECOG=1"	0	"DM"	"Years"	"2008-03-28T11:08"	12:15:00	"12:15"	NA	""
"599"	"64"	"EFC6546"	"006546-530-092-401"	"530092401"	""	NA	"M"	1	"CAUCASIAN/WHITE"	1	"SCRNFAIL"	"SCREEN FAILURE"	NA	"SCRNFAIL"	"SCREEN FAILURE"	NA	"N"	"N"	"N"	"N"	""	NA	""	NA	NA	""	NA	""	NA	""	NA	""	""	NA	"DM"	"Years"	""	NA	""	NA	""
"600"	"62"	"EFC6546"	"006546-530-092-501"	"530092501"	""	NA	"M"	1	"ASIAN/ORIENTAL"	3	"SCRNFAIL"	"SCREEN FAILURE"	NA	"SCRNFAIL"	"SCREEN FAILURE"	NA	"N"	"N"	"N"	"N"	""	NA	""	NA	NA	""	NA	""	NA	""	NA	""	""	NA	"DM"	"Years"	""	NA	""	NA	""
"601"	">=85"	"EFC6546"	"006546-532-001-203"	"532001203"	"ECOG=0 or ECOG=1"	0	"M"	1	"CAUCASIAN/WHITE"	1	"PLACEBO"	"PLACEBO"	0	"PLACEBO"	"PLACEBO"	0	"Y"	"Y"	"Y"	"Y"	"ECOG=0"	0	"ECOG=0"	0	2010-02-03	"2010-02-03"	17:49:00	"17:49"	2010-02-04	"2010-02-04"	2010-06-30	"2010-06-30"	"ECOG=0 or ECOG=1"	0	"DM"	"Years"	"2010-02-03T17:49"	11:15:00	"11:15"	NA	""
"602"	"79"	"EFC6546"	"006546-532-001-401"	"532001401"	"ECOG=0 or ECOG=1"	0	"M"	1	"CAUCASIAN/WHITE"	1	"PLACEBO"	"PLACEBO"	0	"6 MG"	"AVE0005A"	6	"Y"	"Y"	"Y"	"Y"	"ECOG=1"	1	"ECOG=1"	1	2007-11-10	"2007-11-10"	14:35:00	"14:35"	2007-11-12	"2007-11-12"	2008-06-12	"2008-06-12"	"ECOG=0 or ECOG=1"	0	"DM"	"Years"	"2007-11-10T14:35"	16:12:00	"16:12"	NA	""
"603"	"70"	"EFC6546"	"006546-532-001-501"	"532001501"	"ECOG=0 or ECOG=1"	0	"M"	1	"CAUCASIAN/WHITE"	1	"PLACEBO"	"PLACEBO"	0	"PLACEBO"	"PLACEBO"	0	"Y"	"Y"	"Y"	"Y"	"ECOG=1"	1	"ECOG=1"	1	2007-11-24	"2007-11-24"	14:08:00	"14:08"	2007-11-26	"2007-11-26"	2008-07-17	"2008-07-17"	"ECOG=0 or ECOG=1"	0	"DM"	"Years"	"2007-11-24T14:08"	16:15:00	"16:15"	NA	""
"604"	"67"	"EFC6546"	"006546-532-001-601"	"532001601"	"ECOG=0 or ECOG=1"	0	"M"	1	"CAUCASIAN/WHITE"	1	"PLACEBO"	"PLACEBO"	0	"PLACEBO"	"PLACEBO"	0	"Y"	"Y"	"Y"	"Y"	"ECOG=0"	0	"ECOG=0"	0	2007-12-12	"2007-12-12"	18:23:00	"18:23"	2007-12-13	"2007-12-13"	2008-06-18	"2008-06-18"	"ECOG=0 or ECOG=1"	0	"DM"	"Years"	"2007-12-12T18:23"	17:30:00	"17:30"	NA	""
"605"	"56"	"EFC6546"	"006546-532-001-702"	"532001702"	"ECOG=0 or ECOG=1"	0	"M"	1	"CAUCASIAN/WHITE"	1	"PLACEBO"	"PLACEBO"	0	"PLACEBO"	"PLACEBO"	0	"Y"	"Y"	"Y"	"Y"	"ECOG=1"	1	"ECOG=1"	1	2009-08-28	"2009-08-28"	18:34:00	"18:34"	2009-08-31	"2009-08-31"	2010-01-26	"2010-01-26"	"ECOG=0 or ECOG=1"	0	"DM"	"Years"	"2009-08-28T18:34"	16:45:00	"16:45"	NA	""
"606"	"66"	"EFC6546"	"006546-532-001-801"	"532001801"	"ECOG=0 or ECOG=1"	0	"M"	1	"CAUCASIAN/WHITE"	1	"PLACEBO"	"PLACEBO"	0	"PLACEBO"	"PLACEBO"	0	"Y"	"Y"	"Y"	"Y"	"ECOG=0"	0	"ECOG=0"	0	2008-07-02	"2008-07-02"	11:40:00	"11:40"	2008-07-02	"2008-07-02"	2009-01-07	"2009-01-07"	"ECOG=0 or ECOG=1"	0	"DM"	"Years"	"2008-07-02T11:40"	14:30:00	"14:30"	NA	""
"607"	"74"	"EFC6546"	"006546-532-001-802"	"532001802"	"ECOG=0 or ECOG=1"	0	"M"	1	"CAUCASIAN/WHITE"	1	"PLACEBO"	"PLACEBO"	0	"PLACEBO"	"PLACEBO"	0	"Y"	"Y"	"Y"	"Y"	"ECOG=1"	1	"ECOG=1"	1	2009-09-11	"2009-09-11"	11:40:00	"11:40"	2009-09-11	"2009-09-11"	2010-03-25	"2010-03-25"	"ECOG=0 or ECOG=1"	0	"DM"	"Years"	"2009-09-11T11:40"	13:50:00	"13:50"	NA	""
"608"	"73"	"EFC6546"	"006546-532-007-102"	"532007102"	"ECOG=0 or ECOG=1"	0	"M"	1	"CAUCASIAN/WHITE"	1	"PLACEBO"	"PLACEBO"	0	"PLACEBO"	"PLACEBO"	0	"Y"	"Y"	"Y"	"Y"	"ECOG=0"	0	"ECOG=0"	0	2008-06-30	"2008-06-30"	10:30:00	"10:30"	2008-06-30	"2008-06-30"	2009-07-01	"2009-07-01"	"ECOG=0 or ECOG=1"	0	"DM"	"Years"	"2008-06-30T10:30"	13:00:00	"13:00"	10:30:00	"10:30"
"609"	"60"	"EFC6546"	"006546-532-007-202"	"532007202"	"ECOG=0 or ECOG=1"	0	"M"	1	"CAUCASIAN/WHITE"	1	"PLACEBO"	"PLACEBO"	0	"PLACEBO"	"PLACEBO"	0	"Y"	"Y"	"Y"	"Y"	"ECOG=0"	0	"ECOG=0"	0	2008-09-30	"2008-09-30"	09:45:00	"09:45"	2008-09-30	"2008-09-30"	2008-09-30	"2008-09-30"	"ECOG=0 or ECOG=1"	0	"DM"	"Years"	"2008-09-30T09:45"	12:20:00	"12:20"	NA	""
"610"	"63"	"EFC6546"	"006546-532-007-303"	"532007303"	"ECOG=0 or ECOG=1"	0	"M"	1	"CAUCASIAN/WHITE"	1	"PLACEBO"	"PLACEBO"	0	"PLACEBO"	"PLACEBO"	0	"Y"	"Y"	"Y"	"Y"	"ECOG=0"	0	"ECOG=0"	0	2009-09-01	"2009-09-01"	13:43:00	"13:43"	2009-09-02	"2009-09-02"	2010-10-27	"2010-10-27"	"ECOG=0 or ECOG=1"	0	"DM"	"Years"	"2009-09-01T13:43"	09:40:00	"09:40"	13:00:00	"13:00"
"611"	"66"	"EFC6546"	"006546-532-007-402"	"532007402"	"ECOG=0 or ECOG=1"	0	"M"	1	"CAUCASIAN/WHITE"	1	"PLACEBO"	"PLACEBO"	0	"PLACEBO"	"PLACEBO"	0	"Y"	"Y"	"Y"	"Y"	"ECOG=0"	0	"ECOG=0"	0	2008-12-15	"2008-12-15"	14:12:00	"14:12"	2008-12-16	"2008-12-16"	2009-03-10	"2009-03-10"	"ECOG=0 or ECOG=1"	0	"DM"	"Years"	"2008-12-15T14:12"	13:10:00	"13:10"	NA	""
"612"	"68"	"EFC6546"	"006546-532-007-403"	"532007403"	"ECOG=0 or ECOG=1"	0	"M"	1	"CAUCASIAN/WHITE"	1	"PLACEBO"	"PLACEBO"	0	"PLACEBO"	"PLACEBO"	0	"Y"	"Y"	"Y"	"Y"	"ECOG=0"	0	"ECOG=0"	0	2009-12-09	"2009-12-09"	15:28:00	"15:28"	2009-12-10	"2009-12-10"	2010-09-29	"2010-09-29"	"ECOG=0 or ECOG=1"	0	"DM"	"Years"	"2009-12-09T15:28"	10:35:00	"10:35"	12:15:00	"12:15"
"613"	"63"	"EFC6546"	"006546-532-007-501"	"532007501"	"ECOG=0 or ECOG=1"	0	"M"	1	"CAUCASIAN/WHITE"	1	"PLACEBO"	"PLACEBO"	0	"PLACEBO"	"PLACEBO"	0	"Y"	"Y"	"Y"	"Y"	"ECOG=0"	0	"ECOG=0"	0	2008-01-24	"2008-01-24"	13:41:00	"13:41"	2008-01-25	"2008-01-25"	2008-08-05	"2008-08-05"	"ECOG=0 or ECOG=1"	0	"DM"	"Years"	"2008-01-24T13:41"	12:05:00	"12:05"	NA	""
"614"	"77"	"EFC6546"	"006546-532-007-502"	"532007502"	"ECOG=0 or ECOG=1"	0	"M"	1	"CAUCASIAN/WHITE"	1	"PLACEBO"	"PLACEBO"	0	"PLACEBO"	"PLACEBO"	0	"Y"	"Y"	"Y"	"Y"	"ECOG=0"	0	"ECOG=0"	0	2008-12-22	"2008-12-22"	10:40:00	"10:40"	2008-12-22	"2008-12-22"	2009-05-19	"2009-05-19"	"ECOG=0 or ECOG=1"	0	"DM"	"Years"	"2008-12-22T10:40"	13:10:00	"13:10"	NA	""
"615"	"79"	"EFC6546"	"006546-532-007-802"	"532007802"	"ECOG=0 or ECOG=1"	0	"M"	1	"CAUCASIAN/WHITE"	1	"PLACEBO"	"PLACEBO"	0	"PLACEBO"	"PLACEBO"	0	"Y"	"Y"	"Y"	"Y"	"ECOG=0"	0	"ECOG=0"	0	2009-03-24	"2009-03-24"	11:43:00	"11:43"	2009-03-24	"2009-03-24"	2009-09-09	"2009-09-09"	"ECOG=0 or ECOG=1"	0	"DM"	"Years"	"2009-03-24T11:43"	15:00:00	"15:00"	13:05:00	"13:05"
"616"	"56"	"EFC6546"	"006546-532-007-901"	"532007901"	"ECOG=0 or ECOG=1"	0	"M"	1	"CAUCASIAN/WHITE"	1	"PLACEBO"	"PLACEBO"	0	"PLACEBO"	"PLACEBO"	0	"Y"	"Y"	"Y"	"Y"	"ECOG=0"	0	"ECOG=0"	0	2008-05-19	"2008-05-19"	11:46:00	"11:46"	2008-05-19	"2008-05-19"	2008-06-30	"2008-06-30"	"ECOG=0 or ECOG=1"	0	"DM"	"Years"	"2008-05-19T11:46"	14:20:00	"14:20"	NA	""
"617"	"58"	"EFC6546"	"006546-532-091-401"	"532091401"	""	NA	"M"	1	"OTHER"	99	"SCRNFAIL"	"SCREEN FAILURE"	NA	"SCRNFAIL"	"SCREEN FAILURE"	NA	"N"	"N"	"N"	"N"	""	NA	""	NA	NA	""	NA	""	NA	""	NA	""	""	NA	"DM"	"Years"	""	NA	""	NA	""
"618"	"80"	"EFC6546"	"006546-532-097-002"	"532097002"	""	NA	"M"	1	"CAUCASIAN/WHITE"	1	"SCRNFAIL"	"SCREEN FAILURE"	NA	"SCRNFAIL"	"SCREEN FAILURE"	NA	"N"	"N"	"N"	"N"	""	NA	""	NA	NA	""	NA	""	NA	""	NA	""	""	NA	"DM"	"Years"	""	NA	""	NA	""
"619"	"64"	"EFC6546"	"006546-532-097-102"	"532097102"	""	NA	"M"	1	"CAUCASIAN/WHITE"	1	"SCRNFAIL"	"SCREEN FAILURE"	NA	"SCRNFAIL"	"SCREEN FAILURE"	NA	"N"	"N"	"N"	"N"	""	NA	""	NA	NA	""	NA	""	NA	""	NA	""	""	NA	"DM"	"Years"	""	NA	""	NA	""
"620"	"73"	"EFC6546"	"006546-532-097-202"	"532097202"	""	NA	"M"	1	"CAUCASIAN/WHITE"	1	"SCRNFAIL"	"SCREEN FAILURE"	NA	"SCRNFAIL"	"SCREEN FAILURE"	NA	"N"	"N"	"N"	"N"	""	NA	""	NA	NA	""	NA	""	NA	""	NA	""	""	NA	"DM"	"Years"	""	NA	""	NA	""
"621"	"68"	"EFC6546"	"006546-532-097-401"	"532097401"	""	NA	"M"	1	"CAUCASIAN/WHITE"	1	"SCRNFAIL"	"SCREEN FAILURE"	NA	"SCRNFAIL"	"SCREEN FAILURE"	NA	"N"	"N"	"N"	"N"	""	NA	""	NA	NA	""	NA	""	NA	""	NA	""	""	NA	"DM"	"Years"	""	NA	""	NA	""
"622"	"69"	"EFC6546"	"006546-532-097-501"	"532097501"	""	NA	"M"	1	"CAUCASIAN/WHITE"	1	"SCRNFAIL"	"SCREEN FAILURE"	NA	"SCRNFAIL"	"SCREEN FAILURE"	NA	"N"	"N"	"N"	"N"	""	NA	""	NA	NA	""	NA	""	NA	""	NA	""	""	NA	"DM"	"Years"	""	NA	""	NA	""
"623"	"74"	"EFC6546"	"006546-532-097-601"	"532097601"	""	NA	"M"	1	"CAUCASIAN/WHITE"	1	"SCRNFAIL"	"SCREEN FAILURE"	NA	"SCRNFAIL"	"SCREEN FAILURE"	NA	"N"	"N"	"N"	"N"	""	NA	""	NA	NA	""	NA	""	NA	""	NA	""	""	NA	"DM"	"Years"	""	NA	""	NA	""
"624"	"73"	"EFC6546"	"006546-532-097-701"	"532097701"	""	NA	"M"	1	"CAUCASIAN/WHITE"	1	"SCRNFAIL"	"SCREEN FAILURE"	NA	"SCRNFAIL"	"SCREEN FAILURE"	NA	"N"	"N"	"N"	"N"	""	NA	""	NA	NA	""	NA	""	NA	""	NA	""	""	NA	"DM"	"Years"	""	NA	""	NA	""
"625"	"77"	"EFC6546"	"006546-532-097-801"	"532097801"	""	NA	"M"	1	"CAUCASIAN/WHITE"	1	"SCRNFAIL"	"SCREEN FAILURE"	NA	"SCRNFAIL"	"SCREEN FAILURE"	NA	"N"	"N"	"N"	"N"	""	NA	""	NA	NA	""	NA	""	NA	""	NA	""	""	NA	"DM"	"Years"	""	NA	""	NA	""
"626"	"73"	"EFC6546"	"006546-532-097-901"	"532097901"	""	NA	"M"	1	"CAUCASIAN/WHITE"	1	"SCRNFAIL"	"SCREEN FAILURE"	NA	"SCRNFAIL"	"SCREEN FAILURE"	NA	"N"	"N"	"N"	"N"	""	NA	""	NA	NA	""	NA	""	NA	""	NA	""	""	NA	"DM"	"Years"	""	NA	""	NA	""
"627"	"61"	"EFC6546"	"006546-536-000-002"	"536000002"	"ECOG=0 or ECOG=1"	0	"M"	1	"CAUCASIAN/WHITE"	1	"PLACEBO"	"PLACEBO"	0	"PLACEBO"	"PLACEBO"	0	"Y"	"Y"	"Y"	"Y"	"ECOG=1"	1	"ECOG=1"	1	2008-11-07	"2008-11-07"	13:44:00	"13:44"	2008-11-07	"2008-11-07"	2009-10-29	"2009-10-29"	"ECOG=0 or ECOG=1"	0	"DM"	"Years"	"2008-11-07T13:44"	15:40:00	"15:40"	NA	"XX:XX"
"628"	"60"	"EFC6546"	"006546-536-000-102"	"536000102"	"ECOG=0 or ECOG=1"	0	"M"	1	"CAUCASIAN/WHITE"	1	"PLACEBO"	"PLACEBO"	0	"PLACEBO"	"PLACEBO"	0	"Y"	"Y"	"Y"	"Y"	"ECOG=1"	1	"ECOG=0"	0	2009-01-23	"2009-01-23"	15:02:00	"15:02"	2009-01-23	"2009-01-23"	2011-10-04	"2011-10-04"	"ECOG=0 or ECOG=1"	0	"DM"	"Years"	"2009-01-23T15:02"	16:25:00	"16:25"	NA	"XX:XX"
"629"	"65"	"EFC6546"	"006546-536-000-202"	"536000202"	"ECOG=0 or ECOG=1"	0	"M"	1	"CAUCASIAN/WHITE"	1	"PLACEBO"	"PLACEBO"	0	"PLACEBO"	"PLACEBO"	0	"Y"	"Y"	"Y"	"Y"	"ECOG=1"	1	"ECOG=1"	1	2009-02-24	"2009-02-24"	17:20:00	"17:20"	2009-02-27	"2009-02-27"	2010-09-29	"2010-09-29"	"ECOG=0 or ECOG=1"	0	"DM"	"Years"	"2009-02-24T17:20"	11:15:00	"11:15"	NA	"XX:XX"
"630"	"59"	"EFC6546"	"006546-536-000-302"	"536000302"	"ECOG=0 or ECOG=1"	0	"M"	1	"CAUCASIAN/WHITE"	1	"PLACEBO"	"PLACEBO"	0	"PLACEBO"	"PLACEBO"	0	"Y"	"Y"	"Y"	"Y"	"ECOG=1"	1	"ECOG=1"	1	2009-03-17	"2009-03-17"	17:45:00	"17:45"	2009-03-18	"2009-03-18"	2010-12-29	"2010-12-29"	"ECOG=0 or ECOG=1"	0	"DM"	"Years"	"2009-03-17T17:45"	10:15:00	"10:15"	NA	"XX:XX"
"631"	"73"	"EFC6546"	"006546-536-000-401"	"536000401"	"ECOG=0 or ECOG=1"	0	"M"	1	"CAUCASIAN/WHITE"	1	"PLACEBO"	"PLACEBO"	0	"PLACEBO"	"PLACEBO"	0	"Y"	"Y"	"Y"	"Y"	"ECOG=0"	0	"ECOG=0"	0	2008-02-12	"2008-02-12"	13:39:00	"13:39"	2008-02-13	"2008-02-13"	2008-08-21	"2008-08-21"	"ECOG=0 or ECOG=1"	0	"DM"	"Years"	"2008-02-12T13:39"	11:40:00	"11:40"	NA	""
"632"	"63"	"EFC6546"	"006546-536-000-402"	"536000402"	"ECOG=0 or ECOG=1"	0	"M"	1	"CAUCASIAN/WHITE"	1	"PLACEBO"	"PLACEBO"	0	"NOTASSGN"	"Not Assigned"	-1	"Y"	"N"	"N"	"Y"	"ECOG=0"	0	"ECOG=0"	0	2009-04-08	"2009-04-08"	10:51:00	"10:51"	NA	""	NA	""	"ECOG=0 or ECOG=1"	0	"DM"	"Years"	"2009-04-08T10:51"	NA	""	NA	""
"633"	"60"	"EFC6546"	"006546-536-000-501"	"536000501"	"ECOG=0 or ECOG=1"	0	"M"	1	"CAUCASIAN/WHITE"	1	"PLACEBO"	"PLACEBO"	0	"PLACEBO"	"PLACEBO"	0	"Y"	"Y"	"Y"	"Y"	"ECOG=1"	1	"ECOG=1"	1	2008-04-02	"2008-04-02"	19:15:00	"19:15"	2008-04-03	"2008-04-03"	2008-10-09	"2008-10-09"	"ECOG=0 or ECOG=1"	0	"DM"	"Years"	"2008-04-02T19:15"	14:00:00	"14:00"	NA	""
"634"	"64"	"EFC6546"	"006546-536-000-701"	"536000701"	"ECOG=0 or ECOG=1"	0	"M"	1	"CAUCASIAN/WHITE"	1	"PLACEBO"	"PLACEBO"	0	"PLACEBO"	"PLACEBO"	0	"Y"	"Y"	"Y"	"Y"	"ECOG=1"	1	"ECOG=1"	1	2008-07-03	"2008-07-03"	18:38:00	"18:38"	2008-07-04	"2008-07-04"	2009-02-24	"2009-02-24"	"ECOG=0 or ECOG=1"	0	"DM"	"Years"	"2008-07-03T18:38"	11:05:00	"11:05"	NA	""
"635"	"68"	"EFC6546"	"006546-536-000-702"	"536000702"	"ECOG=2"	1	"M"	1	"CAUCASIAN/WHITE"	1	"PLACEBO"	"PLACEBO"	0	"PLACEBO"	"PLACEBO"	0	"Y"	"Y"	"Y"	"Y"	"ECOG=2"	2	"ECOG=2"	2	2009-11-05	"2009-11-05"	09:23:00	"09:23"	2009-11-05	"2009-11-05"	2011-05-25	"2011-05-25"	"ECOG=2"	1	"DM"	"Years"	"2009-11-05T09:23"	10:08:00	"10:08"	NA	"XX:XX"
"636"	"82"	"EFC6546"	"006546-536-000-802"	"536000802"	"ECOG=0 or ECOG=1"	0	"M"	1	"CAUCASIAN/WHITE"	1	"PLACEBO"	"PLACEBO"	0	"PLACEBO"	"PLACEBO"	0	"Y"	"Y"	"Y"	"Y"	"ECOG=0"	0	"ECOG=0"	0	2010-01-06	"2010-01-06"	16:54:00	"16:54"	2010-01-07	"2010-01-07"	2010-04-08	"2010-04-08"	"ECOG=0 or ECOG=1"	0	"DM"	"Years"	"2010-01-06T16:54"	09:25:00	"09:25"	NA	""
"637"	"77"	"EFC6546"	"006546-536-007-401"	"536007401"	"ECOG=0 or ECOG=1"	0	"M"	1	"CAUCASIAN/WHITE"	1	"PLACEBO"	"PLACEBO"	0	"PLACEBO"	"PLACEBO"	0	"Y"	"Y"	"Y"	"Y"	"ECOG=0"	0	"ECOG=0"	0	2007-12-27	"2007-12-27"	14:49:00	"14:49"	2007-12-28	"2007-12-28"	2008-02-15	"2008-02-15"	"ECOG=0 or ECOG=1"	0	"DM"	"Years"	"2007-12-27T14:49"	10:00:00	"10:00"	NA	""
"638"	"62"	"EFC6546"	"006546-536-007-501"	"536007501"	"ECOG=0 or ECOG=1"	0	"M"	1	"CAUCASIAN/WHITE"	1	"PLACEBO"	"PLACEBO"	0	"PLACEBO"	"PLACEBO"	0	"Y"	"Y"	"Y"	"Y"	"ECOG=0"	0	"ECOG=0"	0	2008-03-05	"2008-03-05"	11:21:00	"11:21"	2008-03-07	"2008-03-07"	2008-09-19	"2008-09-19"	"ECOG=0 or ECOG=1"	0	"DM"	"Years"	"2008-03-05T11:21"	14:30:00	"14:30"	NA	""
"639"	"67"	"EFC6546"	"006546-536-007-801"	"536007801"	"ECOG=0 or ECOG=1"	0	"M"	1	"CAUCASIAN/WHITE"	1	"PLACEBO"	"PLACEBO"	0	"PLACEBO"	"PLACEBO"	0	"Y"	"Y"	"Y"	"Y"	"ECOG=0"	0	"ECOG=0"	0	2009-10-13	"2009-10-13"	13:58:00	"13:58"	2009-10-14	"2009-10-14"	2010-07-14	"2010-07-14"	"ECOG=0 or ECOG=1"	0	"DM"	"Years"	"2009-10-13T13:58"	11:00:00	"11:00"	NA	""
"640"	"83"	"EFC6546"	"006546-536-090-401"	"536090401"	""	NA	"M"	1	"CAUCASIAN/WHITE"	1	"SCRNFAIL"	"SCREEN FAILURE"	NA	"SCRNFAIL"	"SCREEN FAILURE"	NA	"N"	"N"	"N"	"N"	""	NA	""	NA	NA	""	NA	""	NA	""	NA	""	""	NA	"DM"	"Years"	""	NA	""	NA	""
"641"	"69"	"EFC6546"	"006546-536-097-401"	"536097401"	""	NA	"M"	1	"CAUCASIAN/WHITE"	1	"SCRNFAIL"	"SCREEN FAILURE"	NA	"SCRNFAIL"	"SCREEN FAILURE"	NA	"N"	"N"	"N"	"N"	""	NA	""	NA	NA	""	NA	""	NA	""	NA	""	""	NA	"DM"	"Years"	""	NA	""	NA	""
"642"	"76"	"EFC6546"	"006546-536-097-501"	"536097501"	""	NA	"M"	1	"CAUCASIAN/WHITE"	1	"SCRNFAIL"	"SCREEN FAILURE"	NA	"SCRNFAIL"	"SCREEN FAILURE"	NA	"N"	"N"	"N"	"N"	""	NA	""	NA	NA	""	NA	""	NA	""	NA	""	""	NA	"DM"	"Years"	""	NA	""	NA	""
"643"	"64"	"EFC6546"	"006546-538-001-401"	"538001401"	"ECOG=0 or ECOG=1"	0	"M"	1	"ASIAN/ORIENTAL"	3	"PLACEBO"	"PLACEBO"	0	"PLACEBO"	"PLACEBO"	0	"Y"	"Y"	"Y"	"Y"	"ECOG=1"	1	"ECOG=1"	1	2008-02-25	"2008-02-25"	11:29:00	"11:29"	2008-02-25	"2008-02-25"	2008-09-08	"2008-09-08"	"ECOG=0 or ECOG=1"	0	"DM"	"Years"	"2008-02-25T11:29"	12:45:00	"12:45"	NA	""
"644"	"72"	"EFC6546"	"006546-538-001-501"	"538001501"	"ECOG=0 or ECOG=1"	0	"M"	1	"ASIAN/ORIENTAL"	3	"PLACEBO"	"PLACEBO"	0	"PLACEBO"	"PLACEBO"	0	"Y"	"Y"	"Y"	"Y"	"ECOG=1"	1	"ECOG=1"	1	2008-06-23	"2008-06-23"	10:09:00	"10:09"	2008-06-23	"2008-06-23"	2009-03-03	"2009-03-03"	"ECOG=0 or ECOG=1"	0	"DM"	"Years"	"2008-06-23T10:09"	13:55:00	"13:55"	NA	""
"645"	"83"	"EFC6546"	"006546-538-001-601"	"538001601"	"ECOG=0 or ECOG=1"	0	"M"	1	"ASIAN/ORIENTAL"	3	"PLACEBO"	"PLACEBO"	0	"PLACEBO"	"PLACEBO"	0	"Y"	"Y"	"Y"	"Y"	"ECOG=1"	1	"ECOG=1"	1	2009-02-09	"2009-02-09"	11:13:00	"11:13"	2009-02-09	"2009-02-09"	2009-08-17	"2009-08-17"	"ECOG=0 or ECOG=1"	0	"DM"	"Years"	"2009-02-09T11:13"	13:40:00	"13:40"	NA	""
"646"	"69"	"EFC6546"	"006546-540-002-002"	"540002002"	"ECOG=0 or ECOG=1"	0	"M"	1	"CAUCASIAN/WHITE"	1	"PLACEBO"	"PLACEBO"	0	"NOTASSGN"	"Not Assigned"	-1	"Y"	"N"	"N"	"Y"	"ECOG=1"	1	"ECOG=0"	0	2008-04-21	"2008-04-21"	10:06:00	"10:06"	NA	""	NA	""	"ECOG=0 or ECOG=1"	0	"DM"	"Years"	"2008-04-21T10:06"	NA	""	NA	""
"647"	"63"	"EFC6546"	"006546-540-002-003"	"540002003"	"ECOG=0 or ECOG=1"	0	"M"	1	"CAUCASIAN/WHITE"	1	"PLACEBO"	"PLACEBO"	0	"PLACEBO"	"PLACEBO"	0	"Y"	"Y"	"Y"	"Y"	"ECOG=1"	1	"ECOG=1"	1	2009-08-28	"2009-08-28"	10:56:00	"10:56"	2009-08-31	"2009-08-31"	2010-03-29	"2010-03-29"	"ECOG=0 or ECOG=1"	0	"DM"	"Years"	"2009-08-28T10:56"	10:00:00	"10:00"	NA	""
"648"	"57"	"EFC6546"	"006546-540-002-103"	"540002103"	"ECOG=0 or ECOG=1"	0	"M"	1	"CAUCASIAN/WHITE"	1	"PLACEBO"	"PLACEBO"	0	"PLACEBO"	"PLACEBO"	0	"Y"	"Y"	"Y"	"Y"	"ECOG=1"	1	"ECOG=1"	1	2009-10-12	"2009-10-12"	11:14:00	"11:14"	2009-10-12	"2009-10-12"	2010-05-31	"2010-05-31"	"ECOG=0 or ECOG=1"	0	"DM"	"Years"	"2009-10-12T11:14"	11:30:00	"11:30"	NA	""
"649"	"72"	"EFC6546"	"006546-540-002-202"	"540002202"	"ECOG=0 or ECOG=1"	0	"M"	1	"CAUCASIAN/WHITE"	1	"PLACEBO"	"PLACEBO"	0	"PLACEBO"	"PLACEBO"	0	"Y"	"Y"	"Y"	"Y"	"ECOG=0"	0	"ECOG=0"	0	2008-06-09	"2008-06-09"	13:55:00	"13:55"	2008-06-09	"2008-06-09"	2008-09-22	"2008-09-22"	"ECOG=0 or ECOG=1"	0	"DM"	"Years"	"2008-06-09T13:55"	16:00:00	"16:00"	NA	""
