"STUDYID"	"USUBJID"	"SUBJID"	"STRATUM1"	"STRATU1N"	"SEX"	"SEXN"	"RACE"	"RACEN"	"ARMCD"	"ARM"	"ARMN"	"ARMACD"	"ARMA"	"ARMAN"	"RANDOM"	"SAFETY"	"EXPOSED"	"ITT"	"ECOGIVRS"	"ECOGIVRN"	"ECOGCRF"	"ECOGCRFN"	"RFSTDT"	"RFSTDX"	"RFSTTM"	"RFSTTX"	"TRTSTDT"	"TRTSTDX"	"TRTENDT"	"TRTENDX"	"ACTSTRA1"	"ACTSTR1N"	"DOMAIN"	"PPSEQ"	"PPTESTCD"	"PPTEST"	"PPCAT"	"PPORRES"	"PPORRESU"	"PPSTRESC"	"PPSTRESN"	"PPSTRESU"	"PPSPEC"	"DOSE"	"DOSESU"	"PPDRVFL"
